Date:	24-Sep-20		Time:	12:13 AM		Version no:	0.00		Project name:	55		Sample name:	222		Section name:	section		Position	0.000000	mm	E0	0.000000	keV	E1	1.000000	keV/channel	sample surface	2.000000	cm	Tube anode:	Mo		Tube voltage:	30	kV	Tube current:	30	mA	gain	15		std. database			resultfile	result		matrix element	11		sample thickness	1.000000		air passage	0.560000	cm	comments	not in position		peaking_time	0.300000	m-sec	trigger_threshold	40.000000	V	mca_bin_width	2.000000	no:	number_mca_channels	2048.000000	no:	gap_time	2048.000000	m-sec	trigger_peaking_time	2048.000000	m-sec	GAINDAC	400		HIGHGAIN	400		TAURC	400		RCTAU	400		RCTAUFRAC	400		livetime	13.459120	seconds	runtime	15.000068	seconds	input_count_rate	47835.074842	cps	output_count_rate	42921.003994	cps	triggers	706206	seconds	events_in_run	629183	seconds	channel	content		1.000	0.000
2.000	0.000
3.000	0.000
4.000	0.000
5.000	0.000
6.000	0.000
7.000	0.000
8.000	0.000
9.000	0.000
10.000	0.000
11.000	0.000
12.000	0.000
13.000	0.000
14.000	0.000
15.000	0.000
16.000	0.000
17.000	0.000
18.000	0.000
19.000	0.000
20.000	0.000
21.000	0.000
22.000	0.000
23.000	0.000
24.000	0.000
25.000	0.000
26.000	0.000
27.000	0.000
28.000	0.000
29.000	0.000
30.000	0.000
31.000	55.000
32.000	56.000
33.000	52.000
34.000	46.000
35.000	58.000
36.000	59.000
37.000	44.000
38.000	38.000
39.000	46.000
40.000	56.000
41.000	48.000
42.000	50.000
43.000	57.000
44.000	40.000
45.000	54.000
46.000	61.000
47.000	77.000
48.000	82.000
49.000	122.000
50.000	146.000
51.000	231.000
52.000	314.000
53.000	423.000
54.000	560.000
55.000	747.000
56.000	997.000
57.000	1379.000
58.000	2023.000
59.000	2774.000
60.000	3506.000
61.000	4082.000
62.000	4540.000
63.000	4677.000
64.000	4585.000
65.000	4505.000
66.000	4282.000
67.000	4208.000
68.000	4101.000
69.000	4034.000
70.000	3982.000
71.000	3823.000
72.000	3924.000
73.000	3879.000
74.000	3732.000
75.000	3679.000
76.000	3940.000
77.000	3681.000
78.000	3698.000
79.000	3776.000
80.000	3783.000
81.000	3877.000
82.000	3822.000
83.000	3824.000
84.000	3910.000
85.000	3944.000
86.000	3851.000
87.000	3863.000
88.000	3812.000
89.000	3677.000
90.000	3587.000
91.000	3649.000
92.000	3487.000
93.000	3424.000
94.000	3365.000
95.000	3359.000
96.000	3272.000
97.000	3204.000
98.000	3279.000
99.000	3179.000
100.000	3105.000
101.000	3319.000
102.000	3109.000
103.000	3100.000
104.000	3069.000
105.000	2988.000
106.000	2992.000
107.000	3082.000
108.000	2932.000
109.000	2827.000
110.000	2856.000
111.000	2836.000
112.000	2750.000
113.000	2735.000
114.000	2699.000
115.000	2672.000
116.000	2652.000
117.000	2768.000
118.000	2716.000
119.000	2719.000
120.000	2720.000
121.000	2631.000
122.000	2597.000
123.000	2563.000
124.000	2559.000
125.000	2461.000
126.000	2370.000
127.000	2387.000
128.000	2330.000
129.000	2306.000
130.000	2274.000
131.000	2314.000
132.000	2294.000
133.000	2200.000
134.000	2115.000
135.000	2284.000
136.000	2284.000
137.000	2208.000
138.000	2433.000
139.000	2613.000
140.000	2690.000
141.000	3059.000
142.000	3374.000
143.000	3875.000
144.000	4046.000
145.000	4396.000
146.000	4372.000
147.000	4429.000
148.000	4195.000
149.000	3845.000
150.000	3607.000
151.000	3444.000
152.000	3323.000
153.000	3206.000
154.000	3060.000
155.000	3122.000
156.000	2894.000
157.000	2616.000
158.000	2498.000
159.000	2419.000
160.000	2272.000
161.000	2365.000
162.000	2650.000
163.000	3279.000
164.000	4467.000
165.000	5895.000
166.000	7825.000
167.000	10114.000
168.000	12298.000
169.000	14481.000
170.000	15445.000
171.000	15829.000
172.000	14965.000
173.000	13420.000
174.000	11275.000
175.000	9203.000
176.000	7320.000
177.000	5901.000
178.000	4879.000
179.000	4317.000
180.000	4165.000
181.000	4300.000
182.000	4456.000
183.000	5019.000
184.000	6000.000
185.000	7387.000
186.000	9328.000
187.000	11523.000
188.000	13844.000
189.000	16089.000
190.000	17519.000
191.000	17699.000
192.000	17094.000
193.000	15706.000
194.000	13760.000
195.000	11117.000
196.000	8786.000
197.000	6486.000
198.000	4944.000
199.000	3833.000
200.000	2906.000
201.000	2472.000
202.000	2127.000
203.000	2072.000
204.000	1960.000
205.000	1931.000
206.000	1903.000
207.000	1956.000
208.000	1848.000
209.000	1963.000
210.000	1926.000
211.000	1954.000
212.000	2002.000
213.000	2077.000
214.000	2119.000
215.000	2320.000
216.000	2509.000
217.000	2784.000
218.000	3043.000
219.000	3284.000
220.000	3529.000
221.000	4032.000
222.000	4316.000
223.000	4300.000
224.000	4469.000
225.000	4084.000
226.000	3909.000
227.000	3643.000
228.000	3312.000
229.000	2862.000
230.000	2599.000
231.000	2246.000
232.000	2101.000
233.000	1857.000
234.000	1779.000
235.000	1729.000
236.000	1692.000
237.000	1605.000
238.000	1620.000
239.000	1606.000
240.000	1677.000
241.000	1759.000
242.000	1692.000
243.000	1836.000
244.000	1875.000
245.000	2123.000
246.000	2417.000
247.000	2899.000
248.000	3792.000
249.000	5233.000
250.000	6999.000
251.000	9491.000
252.000	12706.000
253.000	16067.000
254.000	19387.000
255.000	22040.000
256.000	24413.000
257.000	24848.000
258.000	24357.000
259.000	22773.000
260.000	19618.000
261.000	16272.000
262.000	13089.000
263.000	9890.000
264.000	7356.000
265.000	5685.000
266.000	4435.000
267.000	3674.000
268.000	3419.000
269.000	3327.000
270.000	3404.000
271.000	3692.000
272.000	4091.000
273.000	4261.000
274.000	4470.000
275.000	4539.000
276.000	4594.000
277.000	4453.000
278.000	4277.000
279.000	4042.000
280.000	4124.000
281.000	4137.000
282.000	4461.000
283.000	5104.000
284.000	5863.000
285.000	6932.000
286.000	8341.000
287.000	9369.000
288.000	10390.000
289.000	11119.000
290.000	11366.000
291.000	10927.000
292.000	10087.000
293.000	8953.000
294.000	7703.000
295.000	6446.000
296.000	5212.000
297.000	4176.000
298.000	3476.000
299.000	2874.000
300.000	2570.000
301.000	2311.000
302.000	2294.000
303.000	2364.000
304.000	2418.000
305.000	2497.000
306.000	2556.000
307.000	2920.000
308.000	3103.000
309.000	3489.000
310.000	3861.000
311.000	4423.000
312.000	5307.000
313.000	6400.000
314.000	8409.000
315.000	11415.000
316.000	15965.000
317.000	21652.000
318.000	29254.000
319.000	38343.000
320.000	48591.000
321.000	58577.000
322.000	67940.000
323.000	74792.000
324.000	79514.000
325.000	79803.000
326.000	76282.000
327.000	69253.000
328.000	59684.000
329.000	49509.000
330.000	39116.000
331.000	29712.000
332.000	21554.000
333.000	15207.000
334.000	10578.000
335.000	7490.000
336.000	5403.000
337.000	4504.000
338.000	4129.000
339.000	4066.000
340.000	4555.000
341.000	5267.000
342.000	6487.000
343.000	7866.000
344.000	10354.000
345.000	13576.000
346.000	18978.000
347.000	27345.000
348.000	39746.000
349.000	59234.000
350.000	90038.000
351.000	134515.000
352.000	199456.000
353.000	289361.000
354.000	405678.000
355.000	550754.000
356.000	719770.000
357.000	896512.000
358.000	1071160.000
359.000	1223233.000
360.000	1334644.000
361.000	1386908.000
362.000	1375813.000
363.000	1305542.000
364.000	1180511.000
365.000	1017366.000
366.000	838146.000
367.000	659623.000
368.000	496776.000
369.000	354871.000
370.000	244231.000
371.000	161212.000
372.000	102744.000
373.000	63929.000
374.000	39549.000
375.000	24503.000
376.000	16839.000
377.000	13095.000
378.000	12195.000
379.000	13070.000
380.000	15655.000
381.000	19618.000
382.000	25974.000
383.000	35797.000
384.000	48129.000
385.000	64432.000
386.000	83105.000
387.000	106652.000
388.000	131301.000
389.000	156131.000
390.000	177795.000
391.000	196321.000
392.000	207276.000
393.000	210254.000
394.000	203781.000
395.000	189810.000
396.000	169681.000
397.000	143778.000
398.000	118079.000
399.000	93523.000
400.000	70217.000
401.000	51061.000
402.000	35434.000
403.000	24436.000
404.000	16207.000
405.000	10597.000
406.000	7088.000
407.000	4662.000
408.000	3321.000
409.000	2479.000
410.000	2106.000
411.000	1813.000
412.000	1734.000
413.000	1618.000
414.000	1547.000
415.000	1566.000
416.000	1480.000
417.000	1506.000
418.000	1558.000
419.000	1626.000
420.000	1634.000
421.000	1687.000
422.000	1817.000
423.000	1952.000
424.000	2190.000
425.000	2610.000
426.000	3190.000
427.000	4106.000
428.000	5449.000
429.000	7397.000
430.000	10400.000
431.000	14745.000
432.000	20319.000
433.000	27143.000
434.000	35034.000
435.000	44913.000
436.000	55079.000
437.000	64906.000
438.000	74419.000
439.000	82098.000
440.000	86615.000
441.000	89201.000
442.000	87099.000
443.000	82096.000
444.000	75239.000
445.000	66006.000
446.000	55943.000
447.000	46452.000
448.000	37652.000
449.000	30103.000
450.000	24134.000
451.000	19647.000
452.000	16669.000
453.000	14583.000
454.000	13230.000
455.000	12020.000
456.000	11432.000
457.000	10405.000
458.000	9349.000
459.000	8463.000
460.000	7511.000
461.000	6804.000
462.000	5877.000
463.000	5348.000
464.000	5141.000
465.000	4945.000
466.000	4756.000
467.000	4958.000
468.000	5236.000
469.000	5835.000
470.000	6215.000
471.000	6988.000
472.000	7928.000
473.000	8722.000
474.000	10030.000
475.000	11322.000
476.000	12651.000
477.000	14291.000
478.000	15711.000
479.000	17189.000
480.000	18452.000
481.000	19282.000
482.000	20041.000
483.000	19606.000
484.000	18924.000
485.000	17765.000
486.000	16438.000
487.000	14479.000
488.000	12918.000
489.000	11123.000
490.000	9575.000
491.000	8153.000
492.000	6683.000
493.000	5808.000
494.000	5187.000
495.000	4425.000
496.000	4203.000
497.000	4154.000
498.000	4106.000
499.000	4093.000
500.000	4174.000
501.000	4086.000
502.000	4378.000
503.000	4421.000
504.000	4583.000
505.000	4725.000
506.000	4931.000
507.000	5018.000
508.000	5227.000
509.000	5272.000
510.000	5328.000
511.000	5609.000
512.000	5690.000
513.000	5792.000
514.000	5973.000
515.000	6263.000
516.000	6333.000
517.000	6792.000
518.000	7048.000
519.000	7305.000
520.000	7871.000
521.000	8242.000
522.000	8793.000
523.000	9284.000
524.000	10109.000
525.000	10753.000
526.000	11184.000
527.000	11717.000
528.000	11840.000
529.000	11872.000
530.000	11947.000
531.000	11569.000
532.000	11024.000
533.000	10125.000
534.000	9438.000
535.000	8730.000
536.000	8189.000
537.000	7341.000
538.000	6796.000
539.000	6288.000
540.000	6071.000
541.000	5880.000
542.000	5617.000
543.000	5505.000
544.000	5348.000
545.000	5232.000
546.000	5206.000
547.000	5324.000
548.000	5303.000
549.000	5312.000
550.000	5298.000
551.000	5465.000
552.000	5393.000
553.000	5498.000
554.000	5542.000
555.000	5740.000
556.000	5823.000
557.000	6041.000
558.000	6339.000
559.000	6514.000
560.000	6892.000
561.000	7695.000
562.000	8746.000
563.000	10008.000
564.000	12109.000
565.000	14449.000
566.000	17513.000
567.000	21542.000
568.000	26471.000
569.000	32172.000
570.000	38540.000
571.000	44669.000
572.000	50814.000
573.000	56315.000
574.000	60929.000
575.000	63944.000
576.000	64700.000
577.000	64818.000
578.000	62612.000
579.000	58066.000
580.000	52764.000
581.000	46757.000
582.000	40670.000
583.000	34467.000
584.000	28596.000
585.000	23588.000
586.000	19479.000
587.000	15869.000
588.000	13421.000
589.000	11461.000
590.000	10093.000
591.000	9327.000
592.000	8740.000
593.000	8414.000
594.000	8424.000
595.000	8591.000
596.000	8716.000
597.000	9016.000
598.000	9407.000
599.000	9644.000
600.000	10192.000
601.000	10960.000
602.000	11871.000
603.000	13006.000
604.000	14918.000
605.000	18067.000
606.000	22269.000
607.000	29019.000
608.000	39743.000
609.000	55707.000
610.000	79810.000
611.000	114355.000
612.000	163592.000
613.000	229649.000
614.000	319100.000
615.000	434520.000
616.000	573954.000
617.000	741268.000
618.000	931370.000
619.000	1138800.000
620.000	1352189.000
621.000	1558337.000
622.000	1743970.000
623.000	1897133.000
624.000	1999957.000
625.000	2045960.000
626.000	2035103.000
627.000	1961075.000
628.000	1837957.000
629.000	1665837.000
630.000	1472234.000
631.000	1260982.000
632.000	1050161.000
633.000	847347.000
634.000	666073.000
635.000	511333.000
636.000	381083.000
637.000	277563.000
638.000	197813.000
639.000	139292.000
640.000	96627.000
641.000	67395.000
642.000	47604.000
643.000	33967.000
644.000	25935.000
645.000	20563.000
646.000	17225.000
647.000	15168.000
648.000	13877.000
649.000	13066.000
650.000	12907.000
651.000	12606.000
652.000	12395.000
653.000	12518.000
654.000	12515.000
655.000	12580.000
656.000	12791.000
657.000	12832.000
658.000	13193.000
659.000	13093.000
660.000	13559.000
661.000	14003.000
662.000	14544.000
663.000	14615.000
664.000	15275.000
665.000	16127.000
666.000	16746.000
667.000	17359.000
668.000	18412.000
669.000	19852.000
670.000	21794.000
671.000	24263.000
672.000	26867.000
673.000	30970.000
674.000	36670.000
675.000	44067.000
676.000	53523.000
677.000	66373.000
678.000	81695.000
679.000	101173.000
680.000	123862.000
681.000	149836.000
682.000	179246.000
683.000	209599.000
684.000	239961.000
685.000	269346.000
686.000	294269.000
687.000	313039.000
688.000	328234.000
689.000	332261.000
690.000	329628.000
691.000	317468.000
692.000	297932.000
693.000	273346.000
694.000	244016.000
695.000	212543.000
696.000	181268.000
697.000	150724.000
698.000	121959.000
699.000	97825.000
700.000	76398.000
701.000	59495.000
702.000	45860.000
703.000	34827.000
704.000	27148.000
705.000	21552.000
706.000	17537.000
707.000	15092.000
708.000	13094.000
709.000	12062.000
710.000	11427.000
711.000	10904.000
712.000	10775.000
713.000	10937.000
714.000	11204.000
715.000	11427.000
716.000	11625.000
717.000	12123.000
718.000	12439.000
719.000	12808.000
720.000	13566.000
721.000	14197.000
722.000	14584.000
723.000	15322.000
724.000	15709.000
725.000	16430.000
726.000	17049.000
727.000	17283.000
728.000	17578.000
729.000	17521.000
730.000	17821.000
731.000	17364.000
732.000	17024.000
733.000	16818.000
734.000	16209.000
735.000	15528.000
736.000	15014.000
737.000	14604.000
738.000	13790.000
739.000	13596.000
740.000	13329.000
741.000	12833.000
742.000	12610.000
743.000	12175.000
744.000	12309.000
745.000	12169.000
746.000	12036.000
747.000	12185.000
748.000	12164.000
749.000	11972.000
750.000	12247.000
751.000	12249.000
752.000	12217.000
753.000	11965.000
754.000	12305.000
755.000	12589.000
756.000	12448.000
757.000	12498.000
758.000	12569.000
759.000	12526.000
760.000	12833.000
761.000	12915.000
762.000	12684.000
763.000	12684.000
764.000	13257.000
765.000	12964.000
766.000	13344.000
767.000	13691.000
768.000	13970.000
769.000	13912.000
770.000	14618.000
771.000	14679.000
772.000	14866.000
773.000	15684.000
774.000	16151.000
775.000	16860.000
776.000	17545.000
777.000	18395.000
778.000	19398.000
779.000	20382.000
780.000	21075.000
781.000	22530.000
782.000	23432.000
783.000	24375.000
784.000	24938.000
785.000	25940.000
786.000	26231.000
787.000	26879.000
788.000	26638.000
789.000	27399.000
790.000	27190.000
791.000	26986.000
792.000	27339.000
793.000	26943.000
794.000	27315.000
795.000	26733.000
796.000	27004.000
797.000	26393.000
798.000	26458.000
799.000	26424.000
800.000	26591.000
801.000	26813.000
802.000	26886.000
803.000	27110.000
804.000	27450.000
805.000	27748.000
806.000	28235.000
807.000	29413.000
808.000	30305.000
809.000	32223.000
810.000	33627.000
811.000	35675.000
812.000	37572.000
813.000	39685.000
814.000	42026.000
815.000	44485.000
816.000	46492.000
817.000	47870.000
818.000	48645.000
819.000	48577.000
820.000	48706.000
821.000	47669.000
822.000	46398.000
823.000	44529.000
824.000	42129.000
825.000	39812.000
826.000	36895.000
827.000	33994.000
828.000	31444.000
829.000	29388.000
830.000	27232.000
831.000	26177.000
832.000	24208.000
833.000	23777.000
834.000	23335.000
835.000	23150.000
836.000	23139.000
837.000	23166.000
838.000	23494.000
839.000	23659.000
840.000	24402.000
841.000	24647.000
842.000	24281.000
843.000	24922.000
844.000	24606.000
845.000	24595.000
846.000	24219.000
847.000	23948.000
848.000	23170.000
849.000	22742.000
850.000	22141.000
851.000	21592.000
852.000	21145.000
853.000	20812.000
854.000	20594.000
855.000	20338.000
856.000	19747.000
857.000	19713.000
858.000	19558.000
859.000	19526.000
860.000	19715.000
861.000	19469.000
862.000	19685.000
863.000	19736.000
864.000	19887.000
865.000	19762.000
866.000	20182.000
867.000	20113.000
868.000	19957.000
869.000	20322.000
870.000	20129.000
871.000	20383.000
872.000	20435.000
873.000	20488.000
874.000	20191.000
875.000	20182.000
876.000	20475.000
877.000	20549.000
878.000	20348.000
879.000	20373.000
880.000	20281.000
881.000	20405.000
882.000	20382.000
883.000	20672.000
884.000	20674.000
885.000	21021.000
886.000	20786.000
887.000	20881.000
888.000	21225.000
889.000	21879.000
890.000	21937.000
891.000	22027.000
892.000	22595.000
893.000	22898.000
894.000	23305.000
895.000	23714.000
896.000	23982.000
897.000	24526.000
898.000	25110.000
899.000	25193.000
900.000	25932.000
901.000	26225.000
902.000	26404.000
903.000	26976.000
904.000	27940.000
905.000	27596.000
906.000	28177.000
907.000	28172.000
908.000	28752.000
909.000	29072.000
910.000	28934.000
911.000	29207.000
912.000	29164.000
913.000	29442.000
914.000	29482.000
915.000	29853.000
916.000	29970.000
917.000	30141.000
918.000	30243.000
919.000	30418.000
920.000	30641.000
921.000	30882.000
922.000	30865.000
923.000	31235.000
924.000	31252.000
925.000	31210.000
926.000	31853.000
927.000	32155.000
928.000	32522.000
929.000	33161.000
930.000	33527.000
931.000	34137.000
932.000	35144.000
933.000	35159.000
934.000	36405.000
935.000	36923.000
936.000	38038.000
937.000	38817.000
938.000	40290.000
939.000	40786.000
940.000	41671.000
941.000	42335.000
942.000	42820.000
943.000	42864.000
944.000	42594.000
945.000	42065.000
946.000	41729.000
947.000	41494.000
948.000	40189.000
949.000	38767.000
950.000	37566.000
951.000	36544.000
952.000	34699.000
953.000	33751.000
954.000	32995.000
955.000	31991.000
956.000	31093.000
957.000	30357.000
958.000	29972.000
959.000	29407.000
960.000	29197.000
961.000	29077.000
962.000	29276.000
963.000	29272.000
964.000	29142.000
965.000	29565.000
966.000	29736.000
967.000	30361.000
968.000	30181.000
969.000	30450.000
970.000	30547.000
971.000	30586.000
972.000	30607.000
973.000	30453.000
974.000	30232.000
975.000	29707.000
976.000	29462.000
977.000	29020.000
978.000	28394.000
979.000	27985.000
980.000	27420.000
981.000	27013.000
982.000	26654.000
983.000	26123.000
984.000	25834.000
985.000	25112.000
986.000	25015.000
987.000	24842.000
988.000	24655.000
989.000	24704.000
990.000	24073.000
991.000	24090.000
992.000	23887.000
993.000	23761.000
994.000	23407.000
995.000	23425.000
996.000	23254.000
997.000	23313.000
998.000	23173.000
999.000	23066.000
1000.000	23031.000
1001.000	23084.000
1002.000	23138.000
1003.000	22856.000
1004.000	22744.000
1005.000	22734.000
1006.000	22958.000
1007.000	22919.000
1008.000	22822.000
1009.000	22960.000
1010.000	23077.000
1011.000	23181.000
1012.000	23143.000
1013.000	23074.000
1014.000	23309.000
1015.000	23188.000
1016.000	23248.000
1017.000	23456.000
1018.000	23870.000
1019.000	23890.000
1020.000	23838.000
1021.000	23997.000
1022.000	23990.000
1023.000	24479.000
1024.000	24593.000
1025.000	24619.000
1026.000	25000.000
1027.000	24874.000
1028.000	25215.000
1029.000	25236.000
1030.000	24998.000
1031.000	25089.000
1032.000	25001.000
1033.000	25110.000
1034.000	25063.000
1035.000	25061.000
1036.000	25274.000
1037.000	25031.000
1038.000	24867.000
1039.000	25081.000
1040.000	24695.000
1041.000	25089.000
1042.000	24842.000
1043.000	25118.000
1044.000	25041.000
1045.000	25166.000
1046.000	24994.000
1047.000	25017.000
1048.000	25377.000
1049.000	25107.000
1050.000	25608.000
1051.000	25672.000
1052.000	25639.000
1053.000	25847.000
1054.000	26056.000
1055.000	25737.000
1056.000	25961.000
1057.000	26148.000
1058.000	26202.000
1059.000	26493.000
1060.000	26503.000
1061.000	26583.000
1062.000	26608.000
1063.000	26585.000
1064.000	26472.000
1065.000	26851.000
1066.000	26491.000
1067.000	26618.000
1068.000	26733.000
1069.000	26809.000
1070.000	26367.000
1071.000	26659.000
1072.000	26526.000
1073.000	26146.000
1074.000	26492.000
1075.000	26360.000
1076.000	26335.000
1077.000	26436.000
1078.000	26462.000
1079.000	26388.000
1080.000	26476.000
1081.000	26372.000
1082.000	26312.000
1083.000	26546.000
1084.000	26450.000
1085.000	26656.000
1086.000	26462.000
1087.000	26676.000
1088.000	26610.000
1089.000	26627.000
1090.000	26967.000
1091.000	27273.000
1092.000	27152.000
1093.000	27559.000
1094.000	28182.000
1095.000	27849.000
1096.000	28044.000
1097.000	28221.000
1098.000	28765.000
1099.000	28407.000
1100.000	28511.000
1101.000	28856.000
1102.000	28743.000
1103.000	28406.000
1104.000	28684.000
1105.000	28355.000
1106.000	28316.000
1107.000	28076.000
1108.000	27852.000
1109.000	27663.000
1110.000	27591.000
1111.000	27408.000
1112.000	27098.000
1113.000	26782.000
1114.000	26684.000
1115.000	26893.000
1116.000	26588.000
1117.000	26571.000
1118.000	26522.000
1119.000	26234.000
1120.000	26197.000
1121.000	26344.000
1122.000	26418.000
1123.000	26318.000
1124.000	26456.000
1125.000	26704.000
1126.000	26654.000
1127.000	26633.000
1128.000	26472.000
1129.000	27025.000
1130.000	26866.000
1131.000	26778.000
1132.000	26683.000
1133.000	27071.000
1134.000	26843.000
1135.000	26888.000
1136.000	26578.000
1137.000	26862.000
1138.000	27068.000
1139.000	26906.000
1140.000	26962.000
1141.000	27349.000
1142.000	27194.000
1143.000	27210.000
1144.000	27220.000
1145.000	27418.000
1146.000	27089.000
1147.000	27449.000
1148.000	27549.000
1149.000	27546.000
1150.000	28022.000
1151.000	28405.000
1152.000	28483.000
1153.000	28816.000
1154.000	29341.000
1155.000	29681.000
1156.000	29618.000
1157.000	30033.000
1158.000	30161.000
1159.000	30797.000
1160.000	30958.000
1161.000	30985.000
1162.000	31065.000
1163.000	31011.000
1164.000	30819.000
1165.000	30827.000
1166.000	30433.000
1167.000	30431.000
1168.000	29649.000
1169.000	29488.000
1170.000	29356.000
1171.000	29005.000
1172.000	28270.000
1173.000	28029.000
1174.000	27608.000
1175.000	27556.000
1176.000	27474.000
1177.000	27288.000
1178.000	27012.000
1179.000	26820.000
1180.000	26739.000
1181.000	26478.000
1182.000	26723.000
1183.000	26733.000
1184.000	26449.000
1185.000	26372.000
1186.000	26350.000
1187.000	26067.000
1188.000	26243.000
1189.000	26268.000
1190.000	26658.000
1191.000	26256.000
1192.000	26512.000
1193.000	26391.000
1194.000	26258.000
1195.000	26739.000
1196.000	26792.000
1197.000	26544.000
1198.000	26596.000
1199.000	26580.000
1200.000	26314.000
1201.000	26654.000
1202.000	26982.000
1203.000	26783.000
1204.000	26577.000
1205.000	27084.000
1206.000	27094.000
1207.000	26999.000
1208.000	26768.000
1209.000	26806.000
1210.000	27187.000
1211.000	27428.000
1212.000	26943.000
1213.000	27099.000
1214.000	27152.000
1215.000	27093.000
1216.000	27220.000
1217.000	27221.000
1218.000	27714.000
1219.000	27280.000
1220.000	27455.000
1221.000	27521.000
1222.000	27596.000
1223.000	28045.000
1224.000	27890.000
1225.000	27808.000
1226.000	27828.000
1227.000	27957.000
1228.000	28001.000
1229.000	28328.000
1230.000	28877.000
1231.000	28145.000
1232.000	28219.000
1233.000	28608.000
1234.000	28104.000
1235.000	28585.000
1236.000	28632.000
1237.000	28742.000
1238.000	28525.000
1239.000	28887.000
1240.000	28485.000
1241.000	28261.000
1242.000	28701.000
1243.000	28615.000
1244.000	29083.000
1245.000	28873.000
1246.000	28763.000
1247.000	29020.000
1248.000	29182.000
1249.000	28830.000
1250.000	29007.000
1251.000	28872.000
1252.000	29391.000
1253.000	28912.000
1254.000	28822.000
1255.000	28772.000
1256.000	28572.000
1257.000	28695.000
1258.000	28485.000
1259.000	28542.000
1260.000	28467.000
1261.000	28343.000
1262.000	28325.000
1263.000	28541.000
1264.000	28372.000
1265.000	27971.000
1266.000	28093.000
1267.000	28420.000
1268.000	28319.000
1269.000	28079.000
1270.000	28038.000
1271.000	28081.000
1272.000	28383.000
1273.000	28306.000
1274.000	27844.000
1275.000	28503.000
1276.000	28110.000
1277.000	27873.000
1278.000	27898.000
1279.000	28268.000
1280.000	27823.000
1281.000	28371.000
1282.000	28107.000
1283.000	28604.000
1284.000	28336.000
1285.000	28799.000
1286.000	28821.000
1287.000	29081.000
1288.000	29410.000
1289.000	29853.000
1290.000	30048.000
1291.000	30684.000
1292.000	31210.000
1293.000	31368.000
1294.000	31877.000
1295.000	32277.000
1296.000	32661.000
1297.000	33370.000
1298.000	33725.000
1299.000	34367.000
1300.000	35004.000
1301.000	35183.000
1302.000	35259.000
1303.000	35575.000
1304.000	35614.000
1305.000	35459.000
1306.000	35482.000
1307.000	35764.000
1308.000	35533.000
1309.000	34847.000
1310.000	34532.000
1311.000	34099.000
1312.000	33250.000
1313.000	33323.000
1314.000	32634.000
1315.000	32295.000
1316.000	31672.000
1317.000	31062.000
1318.000	30994.000
1319.000	30300.000
1320.000	30390.000
1321.000	29779.000
1322.000	29816.000
1323.000	29568.000
1324.000	29763.000
1325.000	29116.000
1326.000	29393.000
1327.000	29208.000
1328.000	28993.000
1329.000	28666.000
1330.000	28895.000
1331.000	28899.000
1332.000	28956.000
1333.000	29024.000
1334.000	29008.000
1335.000	28694.000
1336.000	28531.000
1337.000	28742.000
1338.000	28597.000
1339.000	29137.000
1340.000	29043.000
1341.000	28832.000
1342.000	29063.000
1343.000	28803.000
1344.000	28623.000
1345.000	29084.000
1346.000	29183.000
1347.000	29231.000
1348.000	29158.000
1349.000	29342.000
1350.000	29188.000
1351.000	29394.000
1352.000	29487.000
1353.000	29913.000
1354.000	30323.000
1355.000	30678.000
1356.000	31193.000
1357.000	32185.000
1358.000	32798.000
1359.000	33833.000
1360.000	35051.000
1361.000	37068.000
1362.000	38620.000
1363.000	41138.000
1364.000	44582.000
1365.000	47541.000
1366.000	50988.000
1367.000	54987.000
1368.000	59248.000
1369.000	63090.000
1370.000	68422.000
1371.000	73167.000
1372.000	78240.000
1373.000	82695.000
1374.000	87455.000
1375.000	91478.000
1376.000	94843.000
1377.000	97439.000
1378.000	98834.000
1379.000	100257.000
1380.000	100824.000
1381.000	99563.000
1382.000	98055.000
1383.000	95546.000
1384.000	92480.000
1385.000	88654.000
1386.000	83603.000
1387.000	79706.000
1388.000	74551.000
1389.000	68909.000
1390.000	64154.000
1391.000	59401.000
1392.000	54996.000
1393.000	50549.000
1394.000	47285.000
1395.000	43844.000
1396.000	40555.000
1397.000	38254.000
1398.000	36204.000
1399.000	34585.000
1400.000	32838.000
1401.000	31811.000
1402.000	31115.000
1403.000	30518.000
1404.000	29943.000
1405.000	29308.000
1406.000	29036.000
1407.000	29107.000
1408.000	28537.000
1409.000	28794.000
1410.000	28477.000
1411.000	28526.000
1412.000	28435.000
1413.000	28704.000
1414.000	28551.000
1415.000	28424.000
1416.000	28714.000
1417.000	28369.000
1418.000	28165.000
1419.000	28241.000
1420.000	28527.000
1421.000	28281.000
1422.000	28722.000
1423.000	28260.000
1424.000	28396.000
1425.000	28480.000
1426.000	28288.000
1427.000	28466.000
1428.000	28106.000
1429.000	28460.000
1430.000	28333.000
1431.000	28696.000
1432.000	28846.000
1433.000	28717.000
1434.000	28628.000
1435.000	28744.000
1436.000	28656.000
1437.000	28942.000
1438.000	29293.000
1439.000	28855.000
1440.000	28950.000
1441.000	29366.000
1442.000	29192.000
1443.000	29751.000
1444.000	29827.000
1445.000	29915.000
1446.000	29852.000
1447.000	30433.000
1448.000	30440.000
1449.000	30563.000
1450.000	30608.000
1451.000	31258.000
1452.000	31528.000
1453.000	31728.000
1454.000	31546.000
1455.000	32030.000
1456.000	32142.000
1457.000	31973.000
1458.000	31845.000
1459.000	32008.000
1460.000	31773.000
1461.000	31786.000
1462.000	31581.000
1463.000	31339.000
1464.000	31040.000
1465.000	31554.000
1466.000	31108.000
1467.000	30847.000
1468.000	30755.000
1469.000	30268.000
1470.000	30116.000
1471.000	30051.000
1472.000	29892.000
1473.000	29775.000
1474.000	29364.000
1475.000	29481.000
1476.000	29420.000
1477.000	29315.000
1478.000	29558.000
1479.000	29662.000
1480.000	29363.000
1481.000	29361.000
1482.000	29424.000
1483.000	29168.000
1484.000	29462.000
1485.000	29574.000
1486.000	29275.000
1487.000	29604.000
1488.000	29734.000
1489.000	29428.000
1490.000	29397.000
1491.000	29525.000
1492.000	29534.000
1493.000	29840.000
1494.000	29795.000
1495.000	29566.000
1496.000	30120.000
1497.000	30008.000
1498.000	29752.000
1499.000	30004.000
1500.000	30135.000
1501.000	29900.000
1502.000	30175.000
1503.000	30055.000
1504.000	30081.000
1505.000	30001.000
1506.000	30137.000
1507.000	30403.000
1508.000	30522.000
1509.000	30586.000
1510.000	30663.000
1511.000	31056.000
1512.000	30493.000
1513.000	31182.000
1514.000	31322.000
1515.000	31778.000
1516.000	31721.000
1517.000	32272.000
1518.000	32590.000
1519.000	32686.000
1520.000	33519.000
1521.000	33725.000
1522.000	34297.000
1523.000	34747.000
1524.000	35429.000
1525.000	36031.000
1526.000	36946.000
1527.000	37647.000
1528.000	38361.000
1529.000	39335.000
1530.000	40566.000
1531.000	41727.000
1532.000	42507.000
1533.000	44030.000
1534.000	44788.000
1535.000	45415.000
1536.000	47054.000
1537.000	48207.000
1538.000	48808.000
1539.000	49198.000
1540.000	50169.000
1541.000	50110.000
1542.000	50680.000
1543.000	50444.000
1544.000	50591.000
1545.000	50490.000
1546.000	49868.000
1547.000	49781.000
1548.000	48893.000
1549.000	48229.000
1550.000	47599.000
1551.000	46520.000
1552.000	46349.000
1553.000	45755.000
1554.000	44540.000
1555.000	44464.000
1556.000	44161.000
1557.000	43744.000
1558.000	43807.000
1559.000	43788.000
1560.000	43779.000
1561.000	43990.000
1562.000	44118.000
1563.000	45182.000
1564.000	45510.000
1565.000	46097.000
1566.000	46793.000
1567.000	47520.000
1568.000	48235.000
1569.000	49320.000
1570.000	50515.000
1571.000	51489.000
1572.000	52544.000
1573.000	53844.000
1574.000	54966.000
1575.000	56632.000
1576.000	57630.000
1577.000	58881.000
1578.000	60888.000
1579.000	62521.000
1580.000	64234.000
1581.000	65577.000
1582.000	67442.000
1583.000	69411.000
1584.000	71413.000
1585.000	73378.000
1586.000	74984.000
1587.000	77380.000
1588.000	79121.000
1589.000	81307.000
1590.000	83712.000
1591.000	84834.000
1592.000	87718.000
1593.000	89151.000
1594.000	91484.000
1595.000	92797.000
1596.000	95198.000
1597.000	96748.000
1598.000	98181.000
1599.000	98636.000
1600.000	100099.000
1601.000	101623.000
1602.000	102116.000
1603.000	103565.000
1604.000	103877.000
1605.000	104344.000
1606.000	104306.000
1607.000	105849.000
1608.000	104980.000
1609.000	105086.000
1610.000	104453.000
1611.000	104704.000
1612.000	104148.000
1613.000	103354.000
1614.000	102612.000
1615.000	101817.000
1616.000	100022.000
1617.000	99511.000
1618.000	96902.000
1619.000	95309.000
1620.000	94054.000
1621.000	92211.000
1622.000	91061.000
1623.000	88295.000
1624.000	86290.000
1625.000	84638.000
1626.000	83169.000
1627.000	80883.000
1628.000	78379.000
1629.000	76542.000
1630.000	74692.000
1631.000	72200.000
1632.000	70494.000
1633.000	68474.000
1634.000	66551.000
1635.000	64339.000
1636.000	62809.000
1637.000	60853.000
1638.000	58867.000
1639.000	57120.000
1640.000	55019.000
1641.000	54378.000
1642.000	52330.000
1643.000	50527.000
1644.000	49277.000
1645.000	47851.000
1646.000	46934.000
1647.000	45261.000
1648.000	44236.000
1649.000	43096.000
1650.000	42024.000
1651.000	40973.000
1652.000	40132.000
1653.000	39038.000
1654.000	38555.000
1655.000	37400.000
1656.000	36754.000
1657.000	36021.000
1658.000	35730.000
1659.000	34562.000
1660.000	34394.000
1661.000	33843.000
1662.000	33119.000
1663.000	32183.000
1664.000	32241.000
1665.000	32143.000
1666.000	31634.000
1667.000	31446.000
1668.000	30963.000
1669.000	30835.000
1670.000	30517.000
1671.000	30495.000
1672.000	30270.000
1673.000	30794.000
1674.000	30779.000
1675.000	31313.000
1676.000	31927.000
1677.000	32339.000
1678.000	33352.000
1679.000	34552.000
1680.000	35658.000
1681.000	37149.000
1682.000	38784.000
1683.000	40863.000
1684.000	43133.000
1685.000	45355.000
1686.000	47816.000
1687.000	50891.000
1688.000	54105.000
1689.000	57154.000
1690.000	59783.000
1691.000	63268.000
1692.000	66369.000
1693.000	69507.000
1694.000	73113.000
1695.000	76021.000
1696.000	78539.000
1697.000	80620.000
1698.000	82252.000
1699.000	84206.000
1700.000	85173.000
1701.000	85789.000
1702.000	85975.000
1703.000	84975.000
1704.000	84028.000
1705.000	82277.000
1706.000	80488.000
1707.000	77833.000
1708.000	74903.000
1709.000	71914.000
1710.000	68284.000
1711.000	64504.000
1712.000	60981.000
1713.000	56625.000
1714.000	53119.000
1715.000	49669.000
1716.000	46709.000
1717.000	43195.000
1718.000	40350.000
1719.000	38169.000
1720.000	35582.000
1721.000	33587.000
1722.000	31784.000
1723.000	30408.000
1724.000	29216.000
1725.000	28034.000
1726.000	27058.000
1727.000	26624.000
1728.000	25718.000
1729.000	25123.000
1730.000	25014.000
1731.000	24605.000
1732.000	24687.000
1733.000	24033.000
1734.000	24204.000
1735.000	23910.000
1736.000	23943.000
1737.000	23912.000
1738.000	23837.000
1739.000	24018.000
1740.000	23829.000
1741.000	23917.000
1742.000	23879.000
1743.000	23869.000
1744.000	24177.000
1745.000	23971.000
1746.000	24231.000
1747.000	24238.000
1748.000	24126.000
1749.000	24448.000
1750.000	24468.000
1751.000	24919.000
1752.000	24691.000
1753.000	25158.000
1754.000	24893.000
1755.000	25190.000
1756.000	25085.000
1757.000	25533.000
1758.000	25609.000
1759.000	25878.000
1760.000	26270.000
1761.000	26087.000
1762.000	26322.000
1763.000	26551.000
1764.000	26856.000
1765.000	27157.000
1766.000	27505.000
1767.000	27614.000
1768.000	27928.000
1769.000	28143.000
1770.000	28709.000
1771.000	28938.000
1772.000	29264.000
1773.000	29259.000
1774.000	29824.000
1775.000	30066.000
1776.000	30608.000
1777.000	30169.000
1778.000	30826.000
1779.000	31116.000
1780.000	31342.000
1781.000	31482.000
1782.000	31678.000
1783.000	32135.000
1784.000	32186.000
1785.000	32597.000
1786.000	32364.000
1787.000	32715.000
1788.000	32842.000
1789.000	32883.000
1790.000	32978.000
1791.000	33173.000
1792.000	33260.000
1793.000	33211.000
1794.000	33424.000
1795.000	33304.000
1796.000	33152.000
1797.000	32873.000
1798.000	32742.000
1799.000	32513.000
1800.000	32615.000
1801.000	32611.000
1802.000	32232.000
1803.000	31934.000
1804.000	31491.000
1805.000	31440.000
1806.000	31192.000
1807.000	30748.000
1808.000	30629.000
1809.000	30431.000
1810.000	29995.000
1811.000	29520.000
1812.000	28815.000
1813.000	29045.000
1814.000	28412.000
1815.000	27940.000
1816.000	27668.000
1817.000	27239.000
1818.000	27166.000
1819.000	26444.000
1820.000	26219.000
1821.000	25679.000
1822.000	24990.000
1823.000	24743.000
1824.000	24491.000
1825.000	23959.000
1826.000	23561.000
1827.000	23450.000
1828.000	22633.000
1829.000	22277.000
1830.000	21862.000
1831.000	21468.000
1832.000	21290.000
1833.000	21039.000
1834.000	20922.000
1835.000	20365.000
1836.000	20092.000
1837.000	19843.000
1838.000	19466.000
1839.000	19122.000
1840.000	18935.000
1841.000	18905.000
1842.000	18344.000
1843.000	18162.000
1844.000	17857.000
1845.000	17592.000
1846.000	17343.000
1847.000	17077.000
1848.000	16989.000
1849.000	16615.000
1850.000	16518.000
1851.000	16364.000
1852.000	16165.000
1853.000	15790.000
1854.000	15558.000
1855.000	15471.000
1856.000	15358.000
1857.000	15137.000
1858.000	14907.000
1859.000	14853.000
1860.000	14562.000
1861.000	14175.000
1862.000	14363.000
1863.000	14131.000
1864.000	14138.000
1865.000	13906.000
1866.000	13914.000
1867.000	13576.000
1868.000	13417.000
1869.000	13456.000
1870.000	13254.000
1871.000	13083.000
1872.000	12983.000
1873.000	13175.000
1874.000	13087.000
1875.000	12780.000
1876.000	12744.000
1877.000	12603.000
1878.000	12791.000
1879.000	12495.000
1880.000	12538.000
1881.000	12345.000
1882.000	12777.000
1883.000	12559.000
1884.000	12367.000
1885.000	12412.000
1886.000	12567.000
1887.000	12457.000
1888.000	12596.000
1889.000	12728.000
1890.000	12646.000
1891.000	12822.000
1892.000	13046.000
1893.000	13411.000
1894.000	13535.000
1895.000	13823.000
1896.000	13961.000
1897.000	14750.000
1898.000	14884.000
1899.000	15212.000
1900.000	15768.000
1901.000	16223.000
1902.000	16887.000
1903.000	17504.000
1904.000	17920.000
1905.000	18328.000
1906.000	18761.000
1907.000	19367.000
1908.000	19309.000
1909.000	19714.000
1910.000	19929.000
1911.000	19986.000
1912.000	19519.000
1913.000	19509.000
1914.000	19530.000
1915.000	19195.000
1916.000	18765.000
1917.000	18271.000
1918.000	17711.000
1919.000	17385.000
1920.000	16497.000
1921.000	16124.000
1922.000	15325.000
1923.000	14863.000
1924.000	14360.000
1925.000	13856.000
1926.000	13322.000
1927.000	13231.000
1928.000	12733.000
1929.000	12312.000
1930.000	12018.000
1931.000	11921.000
1932.000	11554.000
1933.000	11454.000
1934.000	11385.000
1935.000	11435.000
1936.000	11441.000
1937.000	11214.000
1938.000	11207.000
1939.000	11234.000
1940.000	11178.000
1941.000	11256.000
1942.000	11176.000
1943.000	11175.000
1944.000	11389.000
1945.000	11234.000
1946.000	11100.000
1947.000	11016.000
1948.000	10897.000
1949.000	10744.000
1950.000	10948.000
1951.000	10631.000
1952.000	10461.000
1953.000	10435.000
1954.000	10189.000
1955.000	10202.000
1956.000	10094.000
1957.000	9850.000
1958.000	9533.000
1959.000	9614.000
1960.000	9362.000
1961.000	9426.000
1962.000	9346.000
1963.000	9183.000
1964.000	9084.000
1965.000	9053.000
1966.000	8827.000
1967.000	8855.000
1968.000	8651.000
1969.000	8714.000
1970.000	8706.000
1971.000	8757.000
1972.000	8733.000
1973.000	8800.000
1974.000	8784.000
1975.000	8558.000
1976.000	8479.000
1977.000	8429.000
1978.000	8756.000
1979.000	8519.000
1980.000	8550.000
1981.000	8485.000
1982.000	8659.000
1983.000	8577.000
1984.000	8528.000
1985.000	8518.000
1986.000	8550.000
1987.000	8623.000
1988.000	8661.000
1989.000	8540.000
1990.000	8511.000
1991.000	8588.000
1992.000	8499.000
1993.000	8547.000
1994.000	8373.000
1995.000	8421.000
1996.000	8625.000
1997.000	8360.000
1998.000	8309.000
1999.000	8502.000
2000.000	8497.000
2001.000	8420.000
2002.000	8381.000
2003.000	8448.000
2004.000	8493.000
2005.000	8481.000
2006.000	8372.000
2007.000	8257.000
2008.000	8323.000
2009.000	8151.000
2010.000	8214.000
2011.000	8266.000
2012.000	8108.000
2013.000	8434.000
2014.000	8135.000
2015.000	8148.000
2016.000	8261.000
2017.000	8247.000
2018.000	8165.000
2019.000	8263.000
2020.000	8182.000
2021.000	8117.000
2022.000	8130.000
2023.000	8089.000
2024.000	8142.000
2025.000	8073.000
2026.000	8136.000
2027.000	8013.000
2028.000	7975.000
2029.000	7983.000
2030.000	7877.000
2031.000	7857.000
2032.000	8126.000
2033.000	7991.000
2034.000	8141.000
2035.000	7996.000
2036.000	7926.000
2037.000	7964.000
2038.000	7919.000
2039.000	7695.000
2040.000	7826.000
2041.000	7768.000
2042.000	7651.000
2043.000	7761.000
2044.000	7853.000
2045.000	7873.000
2046.000	7827.000
2047.000	7832.000
2048.000	0.000
