Date:	23-Sep-20		Time:	11:32 PM		Version no:	0.00		Project name:	55		Sample name:	222		Section name:	section		Position	0.000000	mm	E0	0.000000	keV	E1	1.000000	keV/channel	sample surface	2.000000	cm	Tube anode:	Mo		Tube voltage:	30	kV	Tube current:	30	mA	gain	15		std. database			resultfile	result		matrix element	11		sample thickness	1.000000		air passage	0.560000	cm	comments	not in position		peaking_time	0.300000	m-sec	trigger_threshold	40.000000	V	mca_bin_width	2.000000	no:	number_mca_channels	2048.000000	no:	gap_time	2048.000000	m-sec	trigger_peaking_time	2048.000000	m-sec	GAINDAC	400		HIGHGAIN	400		TAURC	400		RCTAU	400		RCTAUFRAC	400		livetime	13.334824	seconds	runtime	15.000351	seconds	input_count_rate	47769.585089	cps	output_count_rate	42465.604889	cps	triggers	704307	seconds	events_in_run	618783	seconds	channel	content		1.000	0.000
2.000	0.000
3.000	0.000
4.000	0.000
5.000	0.000
6.000	0.000
7.000	0.000
8.000	0.000
9.000	0.000
10.000	0.000
11.000	0.000
12.000	0.000
13.000	0.000
14.000	0.000
15.000	0.000
16.000	0.000
17.000	0.000
18.000	0.000
19.000	0.000
20.000	0.000
21.000	0.000
22.000	0.000
23.000	0.000
24.000	0.000
25.000	0.000
26.000	0.000
27.000	0.000
28.000	0.000
29.000	0.000
30.000	0.000
31.000	527.000
32.000	547.000
33.000	577.000
34.000	552.000
35.000	528.000
36.000	525.000
37.000	526.000
38.000	506.000
39.000	504.000
40.000	560.000
41.000	481.000
42.000	520.000
43.000	517.000
44.000	555.000
45.000	606.000
46.000	609.000
47.000	681.000
48.000	871.000
49.000	1027.000
50.000	1513.000
51.000	2200.000
52.000	2957.000
53.000	3883.000
54.000	5392.000
55.000	6868.000
56.000	9434.000
57.000	12975.000
58.000	18701.000
59.000	26122.000
60.000	33036.000
61.000	38283.000
62.000	41879.000
63.000	43202.000
64.000	43574.000
65.000	42502.000
66.000	40670.000
67.000	39208.000
68.000	38145.000
69.000	36885.000
70.000	36471.000
71.000	36324.000
72.000	36193.000
73.000	35767.000
74.000	35748.000
75.000	35561.000
76.000	35121.000
77.000	34964.000
78.000	34465.000
79.000	34924.000
80.000	34659.000
81.000	34610.000
82.000	35590.000
83.000	35848.000
84.000	36212.000
85.000	36382.000
86.000	36634.000
87.000	35859.000
88.000	35488.000
89.000	34496.000
90.000	33609.000
91.000	32453.000
92.000	32030.000
93.000	31432.000
94.000	31311.000
95.000	30896.000
96.000	30609.000
97.000	30295.000
98.000	29880.000
99.000	29861.000
100.000	29507.000
101.000	29284.000
102.000	29137.000
103.000	28936.000
104.000	28654.000
105.000	28399.000
106.000	28001.000
107.000	27778.000
108.000	27603.000
109.000	27301.000
110.000	26607.000
111.000	26818.000
112.000	26411.000
113.000	26131.000
114.000	26217.000
115.000	26023.000
116.000	26098.000
117.000	25997.000
118.000	26138.000
119.000	26038.000
120.000	25975.000
121.000	25365.000
122.000	25042.000
123.000	24605.000
124.000	24432.000
125.000	23511.000
126.000	23537.000
127.000	23041.000
128.000	22728.000
129.000	22622.000
130.000	22489.000
131.000	22017.000
132.000	22080.000
133.000	22100.000
134.000	21956.000
135.000	21684.000
136.000	21946.000
137.000	22313.000
138.000	23121.000
139.000	24013.000
140.000	26019.000
141.000	28107.000
142.000	30406.000
143.000	33179.000
144.000	35666.000
145.000	36976.000
146.000	36945.000
147.000	36222.000
148.000	34686.000
149.000	32612.000
150.000	30689.000
151.000	28712.000
152.000	27667.000
153.000	26751.000
154.000	25831.000
155.000	24616.000
156.000	23891.000
157.000	22879.000
158.000	21778.000
159.000	20720.000
160.000	20350.000
161.000	20557.000
162.000	21948.000
163.000	25190.000
164.000	29562.000
165.000	36520.000
166.000	45456.000
167.000	56131.000
168.000	66888.000
169.000	75631.000
170.000	81412.000
171.000	82789.000
172.000	79930.000
173.000	72775.000
174.000	63798.000
175.000	55480.000
176.000	47544.000
177.000	43185.000
178.000	41085.000
179.000	41721.000
180.000	44242.000
181.000	50047.000
182.000	58628.000
183.000	73181.000
184.000	94818.000
185.000	124783.000
186.000	165221.000
187.000	210075.000
188.000	259743.000
189.000	302113.000
190.000	330302.000
191.000	340814.000
192.000	328686.000
193.000	296846.000
194.000	252108.000
195.000	202614.000
196.000	153328.000
197.000	111029.000
198.000	78956.000
199.000	55698.000
200.000	40990.000
201.000	31463.000
202.000	26612.000
203.000	23946.000
204.000	22943.000
205.000	21978.000
206.000	22265.000
207.000	22229.000
208.000	22664.000
209.000	23187.000
210.000	23322.000
211.000	23946.000
212.000	24633.000
213.000	26121.000
214.000	27673.000
215.000	30385.000
216.000	33787.000
217.000	38620.000
218.000	44406.000
219.000	50564.000
220.000	56972.000
221.000	61826.000
222.000	65168.000
223.000	66892.000
224.000	65205.000
225.000	61727.000
226.000	56210.000
227.000	49569.000
228.000	43390.000
229.000	37219.000
230.000	31866.000
231.000	27575.000
232.000	24820.000
233.000	22143.000
234.000	20877.000
235.000	19645.000
236.000	19209.000
237.000	19306.000
238.000	18831.000
239.000	19126.000
240.000	19169.000
241.000	19101.000
242.000	19568.000
243.000	20308.000
244.000	21050.000
245.000	22860.000
246.000	25947.000
247.000	31053.000
248.000	39271.000
249.000	51459.000
250.000	69102.000
251.000	92132.000
252.000	119861.000
253.000	149657.000
254.000	180614.000
255.000	206168.000
256.000	225039.000
257.000	231607.000
258.000	225914.000
259.000	208090.000
260.000	182713.000
261.000	153433.000
262.000	121983.000
263.000	94445.000
264.000	71265.000
265.000	53576.000
266.000	42152.000
267.000	35293.000
268.000	32118.000
269.000	31609.000
270.000	33077.000
271.000	34997.000
272.000	38126.000
273.000	40881.000
274.000	43063.000
275.000	44769.000
276.000	45255.000
277.000	45325.000
278.000	43942.000
279.000	43675.000
280.000	43239.000
281.000	44517.000
282.000	48266.000
283.000	54576.000
284.000	63384.000
285.000	75444.000
286.000	88052.000
287.000	101005.000
288.000	110961.000
289.000	116625.000
290.000	118713.000
291.000	115728.000
292.000	108021.000
293.000	95972.000
294.000	83807.000
295.000	70779.000
296.000	58876.000
297.000	49232.000
298.000	41734.000
299.000	36325.000
300.000	33195.000
301.000	31276.000
302.000	31105.000
303.000	31187.000
304.000	32366.000
305.000	33546.000
306.000	35272.000
307.000	37992.000
308.000	40102.000
309.000	43393.000
310.000	46251.000
311.000	50353.000
312.000	55384.000
313.000	62477.000
314.000	72895.000
315.000	87970.000
316.000	109326.000
317.000	140100.000
318.000	178287.000
319.000	224608.000
320.000	276865.000
321.000	329438.000
322.000	378734.000
323.000	414597.000
324.000	435027.000
325.000	435145.000
326.000	416498.000
327.000	378537.000
328.000	329105.000
329.000	275616.000
330.000	221030.000
331.000	171330.000
332.000	129806.000
333.000	97866.000
334.000	74957.000
335.000	60321.000
336.000	52764.000
337.000	49930.000
338.000	50684.000
339.000	55003.000
340.000	62246.000
341.000	73650.000
342.000	89093.000
343.000	112423.000
344.000	146547.000
345.000	201635.000
346.000	287870.000
347.000	426880.000
348.000	658492.000
349.000	1036036.000
350.000	1621254.000
351.000	2519376.000
352.000	3827965.000
353.000	5630537.000
354.000	7995644.000
355.000	10914704.000
356.000	14290671.000
357.000	17886085.000
358.000	21404539.000
359.000	24451006.000
360.000	26699492.000
361.000	27766603.000
362.000	27584154.000
363.000	26147391.000
364.000	23667998.000
365.000	20386988.000
366.000	16791062.000
367.000	13207446.000
368.000	9918680.000
369.000	7107811.000
370.000	4883687.000
371.000	3223821.000
372.000	2047581.000
373.000	1264760.000
374.000	772403.000
375.000	485135.000
376.000	325883.000
377.000	249461.000
378.000	229493.000
379.000	246333.000
380.000	296992.000
381.000	382809.000
382.000	511736.000
383.000	695585.000
384.000	939530.000
385.000	1260752.000
386.000	1652619.000
387.000	2106454.000
388.000	2596872.000
389.000	3088483.000
390.000	3539403.000
391.000	3897293.000
392.000	4111164.000
393.000	4157584.000
394.000	4037318.000
395.000	3750118.000
396.000	3336398.000
397.000	2844922.000
398.000	2325153.000
399.000	1821023.000
400.000	1364538.000
401.000	984983.000
402.000	681516.000
403.000	456024.000
404.000	294310.000
405.000	185440.000
406.000	113799.000
407.000	70908.000
408.000	44244.000
409.000	29603.000
410.000	21074.000
411.000	16520.000
412.000	14344.000
413.000	13047.000
414.000	12388.000
415.000	12102.000
416.000	11954.000
417.000	11852.000
418.000	11854.000
419.000	11928.000
420.000	12061.000
421.000	12322.000
422.000	12753.000
423.000	13061.000
424.000	14285.000
425.000	15590.000
426.000	17618.000
427.000	21220.000
428.000	26215.000
429.000	34275.000
430.000	45632.000
431.000	60775.000
432.000	81863.000
433.000	108870.000
434.000	140568.000
435.000	177729.000
436.000	215982.000
437.000	255057.000
438.000	291502.000
439.000	319736.000
440.000	340082.000
441.000	347492.000
442.000	339813.000
443.000	321728.000
444.000	294565.000
445.000	259454.000
446.000	221242.000
447.000	184526.000
448.000	150901.000
449.000	122188.000
450.000	99492.000
451.000	82913.000
452.000	70783.000
453.000	62878.000
454.000	57675.000
455.000	53543.000
456.000	50166.000
457.000	47280.000
458.000	43951.000
459.000	40510.000
460.000	37071.000
461.000	33465.000
462.000	30593.000
463.000	28155.000
464.000	26423.000
465.000	25495.000
466.000	25114.000
467.000	25625.000
468.000	26522.000
469.000	27899.000
470.000	30051.000
471.000	32928.000
472.000	35943.000
473.000	39261.000
474.000	43412.000
475.000	48477.000
476.000	54632.000
477.000	60227.000
478.000	65974.000
479.000	72204.000
480.000	77324.000
481.000	80747.000
482.000	82955.000
483.000	82455.000
484.000	79935.000
485.000	76662.000
486.000	70794.000
487.000	64249.000
488.000	57078.000
489.000	50584.000
490.000	44017.000
491.000	38365.000
492.000	34306.000
493.000	30432.000
494.000	28427.000
495.000	26364.000
496.000	25215.000
497.000	24598.000
498.000	24713.000
499.000	24747.000
500.000	24728.000
501.000	25580.000
502.000	26424.000
503.000	26972.000
504.000	27245.000
505.000	28104.000
506.000	29128.000
507.000	29861.000
508.000	30264.000
509.000	31287.000
510.000	32191.000
511.000	32654.000
512.000	34049.000
513.000	34465.000
514.000	35630.000
515.000	37096.000
516.000	38381.000
517.000	39847.000
518.000	41426.000
519.000	43471.000
520.000	46056.000
521.000	48808.000
522.000	52578.000
523.000	56795.000
524.000	60616.000
525.000	64150.000
526.000	67266.000
527.000	70073.000
528.000	71838.000
529.000	72500.000
530.000	71456.000
531.000	69240.000
532.000	66011.000
533.000	62160.000
534.000	57667.000
535.000	53077.000
536.000	48830.000
537.000	45540.000
538.000	41572.000
539.000	38634.000
540.000	36993.000
541.000	35503.000
542.000	34645.000
543.000	34070.000
544.000	33796.000
545.000	33762.000
546.000	34022.000
547.000	34550.000
548.000	35002.000
549.000	35387.000
550.000	35895.000
551.000	36722.000
552.000	37533.000
553.000	38372.000
554.000	39274.000
555.000	40427.000
556.000	41275.000
557.000	42637.000
558.000	43576.000
559.000	45976.000
560.000	48186.000
561.000	50803.000
562.000	54287.000
563.000	59132.000
564.000	66030.000
565.000	74525.000
566.000	85472.000
567.000	99037.000
568.000	114431.000
569.000	132991.000
570.000	153745.000
571.000	173699.000
572.000	194020.000
573.000	212702.000
574.000	227452.000
575.000	236559.000
576.000	241641.000
577.000	239337.000
578.000	231094.000
579.000	218108.000
580.000	200630.000
581.000	180516.000
582.000	158820.000
583.000	137507.000
584.000	118361.000
585.000	101501.000
586.000	86451.000
587.000	74326.000
588.000	65105.000
589.000	58732.000
590.000	53644.000
591.000	50663.000
592.000	48879.000
593.000	47601.000
594.000	47551.000
595.000	48155.000
596.000	48245.000
597.000	49673.000
598.000	50546.000
599.000	52633.000
600.000	54785.000
601.000	57422.000
602.000	61353.000
603.000	66420.000
604.000	74115.000
605.000	85459.000
606.000	103344.000
607.000	129677.000
608.000	170036.000
609.000	231790.000
610.000	322419.000
611.000	455182.000
612.000	642215.000
613.000	895119.000
614.000	1233007.000
615.000	1670480.000
616.000	2200961.000
617.000	2836533.000
618.000	3559441.000
619.000	4347016.000
620.000	5149099.000
621.000	5927605.000
622.000	6643093.000
623.000	7226796.000
624.000	7616714.000
625.000	7806653.000
626.000	7760898.000
627.000	7479865.000
628.000	7002842.000
629.000	6371929.000
630.000	5628006.000
631.000	4824338.000
632.000	4023358.000
633.000	3258275.000
634.000	2570065.000
635.000	1974804.000
636.000	1485246.000
637.000	1092328.000
638.000	790332.000
639.000	565162.000
640.000	404076.000
641.000	291460.000
642.000	216406.000
643.000	166299.000
644.000	133573.000
645.000	113748.000
646.000	100762.000
647.000	93541.000
648.000	89108.000
649.000	85765.000
650.000	84868.000
651.000	84042.000
652.000	83585.000
653.000	83610.000
654.000	83867.000
655.000	84537.000
656.000	85256.000
657.000	86101.000
658.000	86870.000
659.000	88460.000
660.000	89591.000
661.000	91937.000
662.000	93348.000
663.000	94806.000
664.000	97529.000
665.000	100441.000
666.000	103344.000
667.000	107551.000
668.000	112577.000
669.000	118974.000
670.000	125145.000
671.000	135930.000
672.000	147215.000
673.000	164306.000
674.000	184465.000
675.000	213332.000
676.000	250099.000
677.000	298320.000
678.000	356757.000
679.000	430620.000
680.000	519923.000
681.000	618487.000
682.000	729063.000
683.000	845516.000
684.000	959067.000
685.000	1071523.000
686.000	1168246.000
687.000	1245471.000
688.000	1295009.000
689.000	1313975.000
690.000	1303580.000
691.000	1258887.000
692.000	1186653.000
693.000	1092422.000
694.000	979248.000
695.000	859084.000
696.000	738627.000
697.000	620252.000
698.000	513712.000
699.000	420299.000
700.000	338525.000
701.000	271440.000
702.000	219808.000
703.000	179322.000
704.000	149022.000
705.000	127409.000
706.000	112233.000
707.000	102339.000
708.000	95869.000
709.000	91881.000
710.000	90517.000
711.000	90624.000
712.000	92072.000
713.000	94251.000
714.000	96461.000
715.000	99943.000
716.000	104292.000
717.000	107971.000
718.000	112804.000
719.000	117273.000
720.000	121117.000
721.000	125369.000
722.000	130265.000
723.000	132691.000
724.000	136086.000
725.000	139314.000
726.000	140267.000
727.000	141274.000
728.000	141494.000
729.000	140331.000
730.000	138756.000
731.000	137058.000
732.000	133634.000
733.000	130665.000
734.000	126962.000
735.000	123164.000
736.000	118289.000
737.000	115229.000
738.000	111943.000
739.000	108773.000
740.000	105742.000
741.000	103925.000
742.000	102729.000
743.000	101928.000
744.000	101695.000
745.000	101083.000
746.000	101112.000
747.000	101894.000
748.000	101840.000
749.000	102519.000
750.000	103315.000
751.000	103094.000
752.000	103611.000
753.000	103547.000
754.000	103735.000
755.000	104351.000
756.000	104352.000
757.000	104438.000
758.000	105374.000
759.000	104635.000
760.000	104902.000
761.000	106277.000
762.000	106762.000
763.000	106896.000
764.000	108138.000
765.000	108427.000
766.000	110052.000
767.000	110943.000
768.000	112834.000
769.000	114321.000
770.000	116445.000
771.000	118816.000
772.000	120868.000
773.000	124604.000
774.000	128206.000
775.000	132115.000
776.000	136165.000
777.000	141658.000
778.000	146096.000
779.000	152969.000
780.000	158716.000
781.000	165010.000
782.000	170155.000
783.000	176734.000
784.000	182579.000
785.000	186862.000
786.000	191822.000
787.000	195080.000
788.000	199022.000
789.000	201743.000
790.000	203711.000
791.000	205115.000
792.000	206824.000
793.000	208546.000
794.000	209234.000
795.000	208691.000
796.000	210598.000
797.000	211269.000
798.000	212421.000
799.000	211824.000
800.000	214909.000
801.000	216142.000
802.000	217045.000
803.000	220848.000
804.000	225505.000
805.000	229984.000
806.000	238298.000
807.000	248352.000
808.000	259541.000
809.000	273873.000
810.000	291278.000
811.000	310330.000
812.000	331826.000
813.000	357928.000
814.000	378889.000
815.000	398222.000
816.000	417719.000
817.000	432099.000
818.000	443005.000
819.000	448089.000
820.000	449005.000
821.000	440009.000
822.000	428277.000
823.000	410626.000
824.000	388799.000
825.000	365128.000
826.000	338596.000
827.000	313424.000
828.000	288236.000
829.000	265539.000
830.000	245410.000
831.000	228992.000
832.000	215425.000
833.000	204414.000
834.000	196780.000
835.000	192725.000
836.000	187990.000
837.000	186838.000
838.000	187453.000
839.000	187127.000
840.000	187906.000
841.000	188394.000
842.000	189897.000
843.000	189801.000
844.000	189269.000
845.000	189310.000
846.000	187298.000
847.000	186446.000
848.000	184837.000
849.000	182991.000
850.000	180414.000
851.000	178458.000
852.000	175556.000
853.000	175658.000
854.000	173556.000
855.000	172429.000
856.000	171279.000
857.000	169631.000
858.000	169139.000
859.000	169006.000
860.000	169133.000
861.000	168654.000
862.000	169803.000
863.000	169662.000
864.000	168967.000
865.000	169266.000
866.000	170015.000
867.000	170762.000
868.000	170881.000
869.000	170334.000
870.000	169401.000
871.000	170453.000
872.000	170096.000
873.000	169775.000
874.000	169117.000
875.000	168645.000
876.000	168785.000
877.000	168946.000
878.000	168420.000
879.000	169368.000
880.000	168621.000
881.000	168855.000
882.000	169658.000
883.000	170092.000
884.000	170474.000
885.000	171782.000
886.000	173342.000
887.000	173584.000
888.000	174479.000
889.000	176738.000
890.000	179801.000
891.000	181091.000
892.000	183714.000
893.000	185655.000
894.000	189221.000
895.000	191398.000
896.000	195135.000
897.000	198194.000
898.000	201108.000
899.000	205766.000
900.000	209399.000
901.000	212120.000
902.000	215508.000
903.000	218753.000
904.000	221975.000
905.000	226583.000
906.000	228025.000
907.000	230511.000
908.000	233422.000
909.000	236805.000
910.000	238920.000
911.000	241570.000
912.000	242072.000
913.000	244255.000
914.000	246688.000
915.000	248603.000
916.000	250233.000
917.000	251697.000
918.000	253558.000
919.000	255076.000
920.000	257734.000
921.000	259035.000
922.000	261216.000
923.000	263701.000
924.000	265699.000
925.000	268079.000
926.000	272814.000
927.000	274399.000
928.000	278264.000
929.000	282618.000
930.000	287675.000
931.000	293043.000
932.000	298879.000
933.000	305685.000
934.000	313770.000
935.000	323756.000
936.000	331869.000
937.000	341176.000
938.000	349967.000
939.000	360362.000
940.000	368267.000
941.000	373475.000
942.000	378627.000
943.000	381116.000
944.000	381275.000
945.000	377951.000
946.000	374237.000
947.000	367266.000
948.000	357120.000
949.000	346926.000
950.000	333687.000
951.000	323210.000
952.000	311844.000
953.000	301605.000
954.000	290858.000
955.000	280926.000
956.000	274308.000
957.000	268439.000
958.000	263936.000
959.000	260735.000
960.000	257005.000
961.000	255990.000
962.000	257487.000
963.000	256920.000
964.000	258670.000
965.000	259624.000
966.000	263057.000
967.000	264528.000
968.000	266008.000
969.000	268831.000
970.000	269181.000
971.000	270076.000
972.000	270514.000
973.000	268621.000
974.000	267429.000
975.000	263991.000
976.000	261292.000
977.000	255712.000
978.000	251945.000
979.000	247229.000
980.000	241656.000
981.000	237806.000
982.000	233638.000
983.000	229493.000
984.000	225926.000
985.000	222603.000
986.000	218590.000
987.000	216219.000
988.000	213272.000
989.000	211067.000
990.000	209659.000
991.000	207955.000
992.000	205821.000
993.000	204688.000
994.000	202952.000
995.000	202554.000
996.000	200841.000
997.000	199012.000
998.000	198357.000
999.000	198407.000
1000.000	196488.000
1001.000	196411.000
1002.000	195902.000
1003.000	195739.000
1004.000	194613.000
1005.000	195308.000
1006.000	195454.000
1007.000	194688.000
1008.000	194561.000
1009.000	194883.000
1010.000	195359.000
1011.000	195356.000
1012.000	195278.000
1013.000	196962.000
1014.000	196919.000
1015.000	196793.000
1016.000	197621.000
1017.000	198552.000
1018.000	199082.000
1019.000	200434.000
1020.000	201756.000
1021.000	202093.000
1022.000	202577.000
1023.000	203668.000
1024.000	204310.000
1025.000	204833.000
1026.000	206056.000
1027.000	206574.000
1028.000	206864.000
1029.000	208519.000
1030.000	207876.000
1031.000	209652.000
1032.000	209849.000
1033.000	209737.000
1034.000	210173.000
1035.000	210154.000
1036.000	210605.000
1037.000	211175.000
1038.000	211973.000
1039.000	212184.000
1040.000	214061.000
1041.000	213207.000
1042.000	214290.000
1043.000	214567.000
1044.000	216558.000
1045.000	216599.000
1046.000	218645.000
1047.000	219460.000
1048.000	220785.000
1049.000	221104.000
1050.000	222841.000
1051.000	223286.000
1052.000	224297.000
1053.000	225007.000
1054.000	225973.000
1055.000	226644.000
1056.000	227944.000
1057.000	228354.000
1058.000	229093.000
1059.000	230461.000
1060.000	229710.000
1061.000	230310.000
1062.000	230760.000
1063.000	231921.000
1064.000	231326.000
1065.000	231425.000
1066.000	232014.000
1067.000	230990.000
1068.000	230163.000
1069.000	231292.000
1070.000	231489.000
1071.000	230802.000
1072.000	230813.000
1073.000	229630.000
1074.000	229326.000
1075.000	229787.000
1076.000	229546.000
1077.000	228467.000
1078.000	228425.000
1079.000	227889.000
1080.000	228630.000
1081.000	227787.000
1082.000	229828.000
1083.000	229222.000
1084.000	228930.000
1085.000	229331.000
1086.000	230046.000
1087.000	231280.000
1088.000	232272.000
1089.000	233535.000
1090.000	235558.000
1091.000	237106.000
1092.000	238698.000
1093.000	240772.000
1094.000	242618.000
1095.000	244242.000
1096.000	244807.000
1097.000	247965.000
1098.000	248531.000
1099.000	249640.000
1100.000	251536.000
1101.000	251333.000
1102.000	250738.000
1103.000	250853.000
1104.000	249117.000
1105.000	248573.000
1106.000	246580.000
1107.000	245058.000
1108.000	243257.000
1109.000	242281.000
1110.000	239986.000
1111.000	237922.000
1112.000	237442.000
1113.000	236413.000
1114.000	234644.000
1115.000	232865.000
1116.000	233592.000
1117.000	232431.000
1118.000	230965.000
1119.000	231576.000
1120.000	232198.000
1121.000	231337.000
1122.000	232575.000
1123.000	231550.000
1124.000	232159.000
1125.000	233257.000
1126.000	233169.000
1127.000	233957.000
1128.000	235659.000
1129.000	235610.000
1130.000	235951.000
1131.000	235904.000
1132.000	236855.000
1133.000	237347.000
1134.000	237892.000
1135.000	238455.000
1136.000	237444.000
1137.000	238851.000
1138.000	238723.000
1139.000	237347.000
1140.000	239363.000
1141.000	239197.000
1142.000	238643.000
1143.000	239379.000
1144.000	238523.000
1145.000	240246.000
1146.000	239845.000
1147.000	240856.000
1148.000	243657.000
1149.000	243398.000
1150.000	246113.000
1151.000	246490.000
1152.000	249560.000
1153.000	250995.000
1154.000	253502.000
1155.000	256609.000
1156.000	258171.000
1157.000	260755.000
1158.000	262696.000
1159.000	264112.000
1160.000	265600.000
1161.000	266399.000
1162.000	267499.000
1163.000	265940.000
1164.000	265760.000
1165.000	264809.000
1166.000	262669.000
1167.000	260249.000
1168.000	257708.000
1169.000	253758.000
1170.000	251847.000
1171.000	249045.000
1172.000	246493.000
1173.000	244268.000
1174.000	241882.000
1175.000	239735.000
1176.000	238947.000
1177.000	237088.000
1178.000	235761.000
1179.000	235216.000
1180.000	233569.000
1181.000	232369.000
1182.000	232222.000
1183.000	231860.000
1184.000	231270.000
1185.000	231749.000
1186.000	231266.000
1187.000	231013.000
1188.000	230080.000
1189.000	230580.000
1190.000	230911.000
1191.000	230531.000
1192.000	230816.000
1193.000	230843.000
1194.000	232912.000
1195.000	232588.000
1196.000	232465.000
1197.000	232252.000
1198.000	232504.000
1199.000	233625.000
1200.000	234360.000
1201.000	234565.000
1202.000	234687.000
1203.000	235482.000
1204.000	235972.000
1205.000	235775.000
1206.000	236753.000
1207.000	237623.000
1208.000	237920.000
1209.000	237511.000
1210.000	238659.000
1211.000	238492.000
1212.000	238673.000
1213.000	239385.000
1214.000	240019.000
1215.000	240167.000
1216.000	239359.000
1217.000	240917.000
1218.000	241091.000
1219.000	241812.000
1220.000	242088.000
1221.000	242170.000
1222.000	242434.000
1223.000	243044.000
1224.000	244193.000
1225.000	244751.000
1226.000	244479.000
1227.000	244126.000
1228.000	245427.000
1229.000	244598.000
1230.000	244751.000
1231.000	245181.000
1232.000	246092.000
1233.000	246941.000
1234.000	246290.000
1235.000	246975.000
1236.000	246663.000
1237.000	246149.000
1238.000	246364.000
1239.000	245723.000
1240.000	245833.000
1241.000	246034.000
1242.000	246285.000
1243.000	246390.000
1244.000	246132.000
1245.000	245620.000
1246.000	245176.000
1247.000	245950.000
1248.000	245923.000
1249.000	244997.000
1250.000	244977.000
1251.000	245218.000
1252.000	246037.000
1253.000	244041.000
1254.000	244255.000
1255.000	244106.000
1256.000	244186.000
1257.000	243906.000
1258.000	243944.000
1259.000	242921.000
1260.000	242562.000
1261.000	242420.000
1262.000	242470.000
1263.000	241857.000
1264.000	242394.000
1265.000	242010.000
1266.000	241034.000
1267.000	241860.000
1268.000	241651.000
1269.000	241670.000
1270.000	241794.000
1271.000	241622.000
1272.000	240965.000
1273.000	240740.000
1274.000	240969.000
1275.000	241225.000
1276.000	241485.000
1277.000	240935.000
1278.000	241677.000
1279.000	243060.000
1280.000	241992.000
1281.000	241839.000
1282.000	242845.000
1283.000	243641.000
1284.000	243486.000
1285.000	245421.000
1286.000	246824.000
1287.000	247623.000
1288.000	248038.000
1289.000	249768.000
1290.000	252288.000
1291.000	254016.000
1292.000	256500.000
1293.000	257919.000
1294.000	260281.000
1295.000	262526.000
1296.000	264063.000
1297.000	266305.000
1298.000	269751.000
1299.000	270803.000
1300.000	272757.000
1301.000	273981.000
1302.000	275804.000
1303.000	276304.000
1304.000	276008.000
1305.000	275920.000
1306.000	275861.000
1307.000	274901.000
1308.000	274718.000
1309.000	272767.000
1310.000	271473.000
1311.000	269762.000
1312.000	268026.000
1313.000	265823.000
1314.000	264373.000
1315.000	262015.000
1316.000	260728.000
1317.000	258584.000
1318.000	257932.000
1319.000	256421.000
1320.000	254598.000
1321.000	254294.000
1322.000	253186.000
1323.000	253224.000
1324.000	251878.000
1325.000	252334.000
1326.000	251120.000
1327.000	250874.000
1328.000	250774.000
1329.000	250690.000
1330.000	250112.000
1331.000	250699.000
1332.000	250967.000
1333.000	251239.000
1334.000	251053.000
1335.000	250854.000
1336.000	251124.000
1337.000	251311.000
1338.000	251414.000
1339.000	251505.000
1340.000	252286.000
1341.000	251571.000
1342.000	252676.000
1343.000	252685.000
1344.000	253453.000
1345.000	254223.000
1346.000	255318.000
1347.000	255070.000
1348.000	256526.000
1349.000	257714.000
1350.000	258919.000
1351.000	261270.000
1352.000	264108.000
1353.000	267662.000
1354.000	272896.000
1355.000	280043.000
1356.000	288426.000
1357.000	298693.000
1358.000	311982.000
1359.000	330152.000
1360.000	351530.000
1361.000	377338.000
1362.000	408119.000
1363.000	443503.000
1364.000	486254.000
1365.000	533862.000
1366.000	588313.000
1367.000	647753.000
1368.000	713839.000
1369.000	781904.000
1370.000	853488.000
1371.000	926422.000
1372.000	999110.000
1373.000	1070246.000
1374.000	1138069.000
1375.000	1197352.000
1376.000	1248835.000
1377.000	1288807.000
1378.000	1318988.000
1379.000	1335749.000
1380.000	1341544.000
1381.000	1329451.000
1382.000	1303686.000
1383.000	1264629.000
1384.000	1217040.000
1385.000	1156567.000
1386.000	1091343.000
1387.000	1021505.000
1388.000	943148.000
1389.000	867910.000
1390.000	790371.000
1391.000	718182.000
1392.000	648615.000
1393.000	586784.000
1394.000	528733.000
1395.000	478093.000
1396.000	432798.000
1397.000	395259.000
1398.000	365203.000
1399.000	337929.000
1400.000	316998.000
1401.000	300371.000
1402.000	286736.000
1403.000	275303.000
1404.000	266844.000
1405.000	261827.000
1406.000	257567.000
1407.000	253735.000
1408.000	250596.000
1409.000	249371.000
1410.000	249111.000
1411.000	248133.000
1412.000	246722.000
1413.000	247164.000
1414.000	246729.000
1415.000	246441.000
1416.000	245342.000
1417.000	245821.000
1418.000	246131.000
1419.000	245557.000
1420.000	245217.000
1421.000	245649.000
1422.000	246657.000
1423.000	246519.000
1424.000	245559.000
1425.000	246355.000
1426.000	246246.000
1427.000	245759.000
1428.000	246756.000
1429.000	246450.000
1430.000	245558.000
1431.000	246307.000
1432.000	246836.000
1433.000	247564.000
1434.000	248415.000
1435.000	248576.000
1436.000	248546.000
1437.000	249504.000
1438.000	249554.000
1439.000	250135.000
1440.000	250491.000
1441.000	251734.000
1442.000	252781.000
1443.000	253038.000
1444.000	254557.000
1445.000	255410.000
1446.000	256129.000
1447.000	257496.000
1448.000	259049.000
1449.000	260367.000
1450.000	260943.000
1451.000	262152.000
1452.000	263113.000
1453.000	264880.000
1454.000	264203.000
1455.000	266409.000
1456.000	267127.000
1457.000	266268.000
1458.000	266273.000
1459.000	267232.000
1460.000	265580.000
1461.000	266447.000
1462.000	265373.000
1463.000	264321.000
1464.000	263403.000
1465.000	263050.000
1466.000	261630.000
1467.000	259839.000
1468.000	260181.000
1469.000	259317.000
1470.000	258352.000
1471.000	257027.000
1472.000	257634.000
1473.000	256454.000
1474.000	255781.000
1475.000	255029.000
1476.000	255488.000
1477.000	255300.000
1478.000	254826.000
1479.000	255001.000
1480.000	256045.000
1481.000	254965.000
1482.000	255972.000
1483.000	254866.000
1484.000	256079.000
1485.000	254926.000
1486.000	255393.000
1487.000	256316.000
1488.000	255454.000
1489.000	256599.000
1490.000	256322.000
1491.000	257454.000
1492.000	256381.000
1493.000	256787.000
1494.000	257306.000
1495.000	257663.000
1496.000	258782.000
1497.000	257807.000
1498.000	259015.000
1499.000	258615.000
1500.000	259397.000
1501.000	259518.000
1502.000	260172.000
1503.000	261274.000
1504.000	261166.000
1505.000	261565.000
1506.000	262467.000
1507.000	263329.000
1508.000	263135.000
1509.000	264424.000
1510.000	266719.000
1511.000	266960.000
1512.000	267135.000
1513.000	268001.000
1514.000	269659.000
1515.000	271071.000
1516.000	272148.000
1517.000	273977.000
1518.000	276070.000
1519.000	279754.000
1520.000	281927.000
1521.000	284868.000
1522.000	289100.000
1523.000	292325.000
1524.000	298683.000
1525.000	304120.000
1526.000	311706.000
1527.000	317891.000
1528.000	326107.000
1529.000	336491.000
1530.000	346861.000
1531.000	357763.000
1532.000	369506.000
1533.000	382993.000
1534.000	397510.000
1535.000	410067.000
1536.000	423636.000
1537.000	436465.000
1538.000	450253.000
1539.000	461150.000
1540.000	471165.000
1541.000	479049.000
1542.000	487483.000
1543.000	491578.000
1544.000	493075.000
1545.000	493329.000
1546.000	489532.000
1547.000	485623.000
1548.000	479362.000
1549.000	472095.000
1550.000	461744.000
1551.000	453002.000
1552.000	442826.000
1553.000	433518.000
1554.000	423918.000
1555.000	413587.000
1556.000	406631.000
1557.000	401829.000
1558.000	396468.000
1559.000	392702.000
1560.000	391139.000
1561.000	392128.000
1562.000	392623.000
1563.000	393959.000
1564.000	398758.000
1565.000	402821.000
1566.000	407349.000
1567.000	413763.000
1568.000	421903.000
1569.000	426217.000
1570.000	434525.000
1571.000	442725.000
1572.000	452627.000
1573.000	462304.000
1574.000	470423.000
1575.000	480574.000
1576.000	491986.000
1577.000	502839.000
1578.000	514442.000
1579.000	526759.000
1580.000	539221.000
1581.000	553505.000
1582.000	568164.000
1583.000	582473.000
1584.000	599121.000
1585.000	613275.000
1586.000	628823.000
1587.000	644490.000
1588.000	663497.000
1589.000	677034.000
1590.000	693945.000
1591.000	710570.000
1592.000	728551.000
1593.000	742982.000
1594.000	759202.000
1595.000	774434.000
1596.000	787630.000
1597.000	801229.000
1598.000	814576.000
1599.000	826648.000
1600.000	834668.000
1601.000	844294.000
1602.000	851582.000
1603.000	861323.000
1604.000	865183.000
1605.000	869848.000
1606.000	872215.000
1607.000	875349.000
1608.000	874065.000
1609.000	873983.000
1610.000	872854.000
1611.000	869619.000
1612.000	863053.000
1613.000	858851.000
1614.000	849477.000
1615.000	842559.000
1616.000	832541.000
1617.000	820945.000
1618.000	810794.000
1619.000	800186.000
1620.000	784848.000
1621.000	769691.000
1622.000	755650.000
1623.000	741930.000
1624.000	725800.000
1625.000	707566.000
1626.000	692852.000
1627.000	674490.000
1628.000	658886.000
1629.000	641505.000
1630.000	624717.000
1631.000	609845.000
1632.000	592330.000
1633.000	576878.000
1634.000	559779.000
1635.000	542679.000
1636.000	527524.000
1637.000	513311.000
1638.000	498625.000
1639.000	482369.000
1640.000	470540.000
1641.000	455001.000
1642.000	443955.000
1643.000	430405.000
1644.000	419199.000
1645.000	408399.000
1646.000	397696.000
1647.000	386013.000
1648.000	375858.000
1649.000	367553.000
1650.000	358830.000
1651.000	349402.000
1652.000	340618.000
1653.000	333455.000
1654.000	326096.000
1655.000	319227.000
1656.000	312836.000
1657.000	308005.000
1658.000	301448.000
1659.000	296468.000
1660.000	290318.000
1661.000	286468.000
1662.000	282339.000
1663.000	277676.000
1664.000	274851.000
1665.000	271010.000
1666.000	267590.000
1667.000	264676.000
1668.000	263725.000
1669.000	262184.000
1670.000	260494.000
1671.000	260473.000
1672.000	261711.000
1673.000	262893.000
1674.000	264218.000
1675.000	267540.000
1676.000	272330.000
1677.000	279739.000
1678.000	286455.000
1679.000	297136.000
1680.000	309220.000
1681.000	323683.000
1682.000	338880.000
1683.000	357078.000
1684.000	379334.000
1685.000	400606.000
1686.000	425035.000
1687.000	452331.000
1688.000	481018.000
1689.000	511230.000
1690.000	540733.000
1691.000	572134.000
1692.000	603163.000
1693.000	632910.000
1694.000	662458.000
1695.000	690726.000
1696.000	714867.000
1697.000	736173.000
1698.000	754874.000
1699.000	770528.000
1700.000	780703.000
1701.000	786104.000
1702.000	785409.000
1703.000	779579.000
1704.000	772068.000
1705.000	756026.000
1706.000	735962.000
1707.000	712045.000
1708.000	685255.000
1709.000	652670.000
1710.000	619105.000
1711.000	585746.000
1712.000	549120.000
1713.000	511280.000
1714.000	479122.000
1715.000	444124.000
1716.000	413889.000
1717.000	382660.000
1718.000	355552.000
1719.000	331605.000
1720.000	308353.000
1721.000	289095.000
1722.000	273776.000
1723.000	260040.000
1724.000	247785.000
1725.000	238215.000
1726.000	229681.000
1727.000	224011.000
1728.000	218491.000
1729.000	214617.000
1730.000	211554.000
1731.000	209505.000
1732.000	206870.000
1733.000	205632.000
1734.000	204180.000
1735.000	204166.000
1736.000	203735.000
1737.000	202936.000
1738.000	202974.000
1739.000	203203.000
1740.000	202662.000
1741.000	203631.000
1742.000	204218.000
1743.000	203889.000
1744.000	204088.000
1745.000	204462.000
1746.000	205224.000
1747.000	206202.000
1748.000	207107.000
1749.000	207486.000
1750.000	207640.000
1751.000	209301.000
1752.000	210039.000
1753.000	211568.000
1754.000	211485.000
1755.000	214017.000
1756.000	214384.000
1757.000	216670.000
1758.000	217869.000
1759.000	219620.000
1760.000	220453.000
1761.000	222805.000
1762.000	225226.000
1763.000	226038.000
1764.000	227633.000
1765.000	229807.000
1766.000	232765.000
1767.000	235177.000
1768.000	236542.000
1769.000	239714.000
1770.000	242498.000
1771.000	243479.000
1772.000	246911.000
1773.000	249353.000
1774.000	251653.000
1775.000	254176.000
1776.000	256517.000
1777.000	259766.000
1778.000	261527.000
1779.000	263538.000
1780.000	265672.000
1781.000	267525.000
1782.000	268545.000
1783.000	270742.000
1784.000	272873.000
1785.000	274190.000
1786.000	274567.000
1787.000	276420.000
1788.000	277036.000
1789.000	278377.000
1790.000	279677.000
1791.000	279449.000
1792.000	279644.000
1793.000	279551.000
1794.000	279193.000
1795.000	279487.000
1796.000	278675.000
1797.000	278691.000
1798.000	275814.000
1799.000	276750.000
1800.000	274402.000
1801.000	272956.000
1802.000	271898.000
1803.000	269143.000
1804.000	267860.000
1805.000	265941.000
1806.000	262964.000
1807.000	261081.000
1808.000	258835.000
1809.000	254216.000
1810.000	252705.000
1811.000	250253.000
1812.000	246761.000
1813.000	243691.000
1814.000	241216.000
1815.000	237046.000
1816.000	235890.000
1817.000	230530.000
1818.000	227476.000
1819.000	223865.000
1820.000	221054.000
1821.000	216823.000
1822.000	213088.000
1823.000	211399.000
1824.000	207773.000
1825.000	203349.000
1826.000	200982.000
1827.000	198063.000
1828.000	194075.000
1829.000	190647.000
1830.000	187988.000
1831.000	185961.000
1832.000	182768.000
1833.000	179899.000
1834.000	176029.000
1835.000	174357.000
1836.000	171069.000
1837.000	168661.000
1838.000	166485.000
1839.000	163903.000
1840.000	161130.000
1841.000	159267.000
1842.000	156479.000
1843.000	154633.000
1844.000	152743.000
1845.000	150404.000
1846.000	149018.000
1847.000	146780.000
1848.000	144876.000
1849.000	142373.000
1850.000	141241.000
1851.000	139327.000
1852.000	137558.000
1853.000	136131.000
1854.000	134804.000
1855.000	132923.000
1856.000	131074.000
1857.000	129621.000
1858.000	128401.000
1859.000	126613.000
1860.000	126365.000
1861.000	124895.000
1862.000	123383.000
1863.000	121409.000
1864.000	120178.000
1865.000	119316.000
1866.000	118989.000
1867.000	117510.000
1868.000	116054.000
1869.000	115797.000
1870.000	114833.000
1871.000	114295.000
1872.000	112228.000
1873.000	112609.000
1874.000	111457.000
1875.000	110110.000
1876.000	110428.000
1877.000	109923.000
1878.000	108769.000
1879.000	107930.000
1880.000	108202.000
1881.000	107865.000
1882.000	107211.000
1883.000	107073.000
1884.000	106441.000
1885.000	106482.000
1886.000	107332.000
1887.000	107384.000
1888.000	107928.000
1889.000	108043.000
1890.000	109621.000
1891.000	110487.000
1892.000	112417.000
1893.000	114680.000
1894.000	117269.000
1895.000	119338.000
1896.000	122715.000
1897.000	126510.000
1898.000	129468.000
1899.000	134483.000
1900.000	138893.000
1901.000	142948.000
1902.000	148088.000
1903.000	152802.000
1904.000	157570.000
1905.000	162195.000
1906.000	165601.000
1907.000	169266.000
1908.000	171702.000
1909.000	174073.000
1910.000	174367.000
1911.000	175686.000
1912.000	175040.000
1913.000	174196.000
1914.000	172268.000
1915.000	169074.000
1916.000	166003.000
1917.000	161258.000
1918.000	157243.000
1919.000	152050.000
1920.000	146683.000
1921.000	142009.000
1922.000	135643.000
1923.000	131075.000
1924.000	126700.000
1925.000	122027.000
1926.000	117368.000
1927.000	113933.000
1928.000	110071.000
1929.000	107575.000
1930.000	104758.000
1931.000	103327.000
1932.000	101938.000
1933.000	99990.000
1934.000	98962.000
1935.000	99066.000
1936.000	98023.000
1937.000	97470.000
1938.000	97548.000
1939.000	97561.000
1940.000	96769.000
1941.000	97371.000
1942.000	97631.000
1943.000	97107.000
1944.000	96712.000
1945.000	96030.000
1946.000	96647.000
1947.000	95142.000
1948.000	94248.000
1949.000	93671.000
1950.000	93084.000
1951.000	91985.000
1952.000	90460.000
1953.000	89656.000
1954.000	88134.000
1955.000	86437.000
1956.000	85288.000
1957.000	84602.000
1958.000	83211.000
1959.000	81920.000
1960.000	80896.000
1961.000	80075.000
1962.000	79362.000
1963.000	77883.000
1964.000	77835.000
1965.000	76943.000
1966.000	76631.000
1967.000	76280.000
1968.000	75461.000
1969.000	75517.000
1970.000	74834.000
1971.000	75370.000
1972.000	74306.000
1973.000	74519.000
1974.000	74038.000
1975.000	74463.000
1976.000	73831.000
1977.000	73786.000
1978.000	73297.000
1979.000	73588.000
1980.000	73606.000
1981.000	73040.000
1982.000	72823.000
1983.000	73235.000
1984.000	72620.000
1985.000	72897.000
1986.000	72976.000
1987.000	73233.000
1988.000	72404.000
1989.000	72271.000
1990.000	72370.000
1991.000	72532.000
1992.000	72435.000
1993.000	72192.000
1994.000	71292.000
1995.000	71807.000
1996.000	72023.000
1997.000	71401.000
1998.000	71497.000
1999.000	71129.000
2000.000	71280.000
2001.000	71318.000
2002.000	71167.000
2003.000	70841.000
2004.000	71181.000
2005.000	70559.000
2006.000	70444.000
2007.000	70985.000
2008.000	70024.000
2009.000	70018.000
2010.000	70301.000
2011.000	69978.000
2012.000	70388.000
2013.000	69958.000
2014.000	69722.000
2015.000	69420.000
2016.000	69986.000
2017.000	69463.000
2018.000	69345.000
2019.000	69370.000
2020.000	68831.000
2021.000	68789.000
2022.000	68408.000
2023.000	69006.000
2024.000	68455.000
2025.000	68750.000
2026.000	68336.000
2027.000	67655.000
2028.000	68255.000
2029.000	67897.000
2030.000	67957.000
2031.000	68120.000
2032.000	67954.000
2033.000	67531.000
2034.000	67600.000
2035.000	67096.000
2036.000	67910.000
2037.000	67161.000
2038.000	66800.000
2039.000	67027.000
2040.000	66830.000
2041.000	66673.000
2042.000	66678.000
2043.000	66763.000
2044.000	66836.000
2045.000	66741.000
2046.000	66445.000
2047.000	66496.000
2048.000	0.000
