Date:	24-Sep-20		Time:	12:54 AM		Version no:	0.00		Project name:	55		Sample name:	222		Section name:	section		Position	0.000000	mm	E0	0.000000	keV	E1	1.000000	keV/channel	sample surface	2.000000	cm	Tube anode:	Mo		Tube voltage:	30	kV	Tube current:	30	mA	gain	15		std. database			resultfile	result		matrix element	11		sample thickness	1.000000		air passage	0.560000	cm	comments	not in position		peaking_time	0.300000	m-sec	trigger_threshold	40.000000	V	mca_bin_width	2.000000	no:	number_mca_channels	2048.000000	no:	gap_time	2048.000000	m-sec	trigger_peaking_time	2048.000000	m-sec	GAINDAC	400		HIGHGAIN	400		TAURC	400		RCTAU	400		RCTAUFRAC	400		livetime	13.468987	seconds	runtime	15.000277	seconds	input_count_rate	47924.166541	cps	output_count_rate	43031.872011	cps	triggers	707539	seconds	events_in_run	630507	seconds	channel	content		1.000	0.000
2.000	0.000
3.000	0.000
4.000	0.000
5.000	0.000
6.000	0.000
7.000	0.000
8.000	0.000
9.000	0.000
10.000	0.000
11.000	0.000
12.000	0.000
13.000	0.000
14.000	0.000
15.000	0.000
16.000	0.000
17.000	0.000
18.000	0.000
19.000	0.000
20.000	0.000
21.000	0.000
22.000	0.000
23.000	0.000
24.000	0.000
25.000	0.000
26.000	0.000
27.000	0.000
28.000	0.000
29.000	0.000
30.000	0.000
31.000	58.000
32.000	59.000
33.000	64.000
34.000	50.000
35.000	44.000
36.000	44.000
37.000	53.000
38.000	43.000
39.000	45.000
40.000	49.000
41.000	48.000
42.000	61.000
43.000	49.000
44.000	44.000
45.000	58.000
46.000	60.000
47.000	69.000
48.000	89.000
49.000	122.000
50.000	158.000
51.000	227.000
52.000	324.000
53.000	416.000
54.000	578.000
55.000	738.000
56.000	1047.000
57.000	1409.000
58.000	1939.000
59.000	2803.000
60.000	3691.000
61.000	4156.000
62.000	4520.000
63.000	4652.000
64.000	4664.000
65.000	4635.000
66.000	4289.000
67.000	4083.000
68.000	4070.000
69.000	4026.000
70.000	3955.000
71.000	3901.000
72.000	3855.000
73.000	3745.000
74.000	3867.000
75.000	3747.000
76.000	3761.000
77.000	3749.000
78.000	3694.000
79.000	3701.000
80.000	3645.000
81.000	3829.000
82.000	3891.000
83.000	3880.000
84.000	3859.000
85.000	3865.000
86.000	3907.000
87.000	3866.000
88.000	3699.000
89.000	3597.000
90.000	3652.000
91.000	3545.000
92.000	3422.000
93.000	3399.000
94.000	3306.000
95.000	3244.000
96.000	3196.000
97.000	3213.000
98.000	3142.000
99.000	3214.000
100.000	3138.000
101.000	3055.000
102.000	3140.000
103.000	3111.000
104.000	2994.000
105.000	3042.000
106.000	2987.000
107.000	2945.000
108.000	2950.000
109.000	2888.000
110.000	2823.000
111.000	2609.000
112.000	2723.000
113.000	2811.000
114.000	2695.000
115.000	2746.000
116.000	2748.000
117.000	2747.000
118.000	2751.000
119.000	2683.000
120.000	2699.000
121.000	2619.000
122.000	2604.000
123.000	2569.000
124.000	2471.000
125.000	2504.000
126.000	2352.000
127.000	2382.000
128.000	2384.000
129.000	2287.000
130.000	2246.000
131.000	2307.000
132.000	2193.000
133.000	2227.000
134.000	2229.000
135.000	2307.000
136.000	2238.000
137.000	2300.000
138.000	2340.000
139.000	2600.000
140.000	2824.000
141.000	3074.000
142.000	3426.000
143.000	3700.000
144.000	4243.000
145.000	4378.000
146.000	4434.000
147.000	4286.000
148.000	4122.000
149.000	3946.000
150.000	3536.000
151.000	3370.000
152.000	3322.000
153.000	3194.000
154.000	3198.000
155.000	3073.000
156.000	2870.000
157.000	2661.000
158.000	2492.000
159.000	2355.000
160.000	2298.000
161.000	2417.000
162.000	2689.000
163.000	3351.000
164.000	4342.000
165.000	5963.000
166.000	7894.000
167.000	10177.000
168.000	12575.000
169.000	14369.000
170.000	15362.000
171.000	15905.000
172.000	15089.000
173.000	13275.000
174.000	11348.000
175.000	9247.000
176.000	7265.000
177.000	5882.000
178.000	4971.000
179.000	4364.000
180.000	4198.000
181.000	4179.000
182.000	4453.000
183.000	5082.000
184.000	5915.000
185.000	7315.000
186.000	9080.000
187.000	11481.000
188.000	13695.000
189.000	16167.000
190.000	17222.000
191.000	18069.000
192.000	17310.000
193.000	15744.000
194.000	13434.000
195.000	10912.000
196.000	8529.000
197.000	6434.000
198.000	4837.000
199.000	3669.000
200.000	2916.000
201.000	2489.000
202.000	2185.000
203.000	1988.000
204.000	1926.000
205.000	1877.000
206.000	1935.000
207.000	1961.000
208.000	1897.000
209.000	1949.000
210.000	2004.000
211.000	1971.000
212.000	1988.000
213.000	2079.000
214.000	2176.000
215.000	2215.000
216.000	2526.000
217.000	2688.000
218.000	3017.000
219.000	3283.000
220.000	3681.000
221.000	3987.000
222.000	4213.000
223.000	4350.000
224.000	4399.000
225.000	4224.000
226.000	3981.000
227.000	3633.000
228.000	3256.000
229.000	2923.000
230.000	2467.000
231.000	2287.000
232.000	2043.000
233.000	1913.000
234.000	1805.000
235.000	1757.000
236.000	1748.000
237.000	1715.000
238.000	1625.000
239.000	1674.000
240.000	1674.000
241.000	1611.000
242.000	1727.000
243.000	1805.000
244.000	1938.000
245.000	2146.000
246.000	2436.000
247.000	3011.000
248.000	3883.000
249.000	5285.000
250.000	7135.000
251.000	9578.000
252.000	12701.000
253.000	16043.000
254.000	18970.000
255.000	21760.000
256.000	24105.000
257.000	24804.000
258.000	24344.000
259.000	22560.000
260.000	19608.000
261.000	16229.000
262.000	12953.000
263.000	9883.000
264.000	7270.000
265.000	5511.000
266.000	4271.000
267.000	3778.000
268.000	3373.000
269.000	3340.000
270.000	3492.000
271.000	3730.000
272.000	3927.000
273.000	4267.000
274.000	4433.000
275.000	4629.000
276.000	4637.000
277.000	4505.000
278.000	4312.000
279.000	4399.000
280.000	4143.000
281.000	4231.000
282.000	4527.000
283.000	5095.000
284.000	6106.000
285.000	7171.000
286.000	8125.000
287.000	9531.000
288.000	10488.000
289.000	10836.000
290.000	11329.000
291.000	11008.000
292.000	10151.000
293.000	8960.000
294.000	7650.000
295.000	6327.000
296.000	5236.000
297.000	4154.000
298.000	3477.000
299.000	2893.000
300.000	2530.000
301.000	2303.000
302.000	2345.000
303.000	2329.000
304.000	2383.000
305.000	2499.000
306.000	2613.000
307.000	2865.000
308.000	3078.000
309.000	3553.000
310.000	3926.000
311.000	4505.000
312.000	5309.000
313.000	6492.000
314.000	8633.000
315.000	11659.000
316.000	15781.000
317.000	21671.000
318.000	29204.000
319.000	38164.000
320.000	48642.000
321.000	59229.000
322.000	68162.000
323.000	75273.000
324.000	79611.000
325.000	79563.000
326.000	76418.000
327.000	69763.000
328.000	59718.000
329.000	49596.000
330.000	39030.000
331.000	29489.000
332.000	21549.000
333.000	15296.000
334.000	10442.000
335.000	7418.000
336.000	5630.000
337.000	4560.000
338.000	4119.000
339.000	4167.000
340.000	4475.000
341.000	5239.000
342.000	6331.000
343.000	7943.000
344.000	10231.000
345.000	13725.000
346.000	19164.000
347.000	27166.000
348.000	39816.000
349.000	59465.000
350.000	88297.000
351.000	134713.000
352.000	200375.000
353.000	289742.000
354.000	407885.000
355.000	552109.000
356.000	720530.000
357.000	899430.000
358.000	1074816.000
359.000	1225032.000
360.000	1334745.000
361.000	1389609.000
362.000	1380852.000
363.000	1307761.000
364.000	1183627.000
365.000	1019312.000
366.000	840769.000
367.000	660118.000
368.000	497059.000
369.000	357031.000
370.000	246041.000
371.000	161611.000
372.000	103161.000
373.000	64123.000
374.000	39478.000
375.000	24742.000
376.000	16882.000
377.000	13298.000
378.000	12200.000
379.000	13127.000
380.000	15496.000
381.000	20015.000
382.000	26272.000
383.000	35675.000
384.000	48211.000
385.000	64111.000
386.000	83318.000
387.000	106444.000
388.000	132174.000
389.000	157159.000
390.000	178435.000
391.000	196837.000
392.000	206938.000
393.000	209490.000
394.000	204053.000
395.000	189172.000
396.000	168857.000
397.000	144394.000
398.000	118786.000
399.000	93794.000
400.000	69861.000
401.000	51138.000
402.000	35837.000
403.000	24450.000
404.000	16184.000
405.000	10548.000
406.000	6919.000
407.000	4645.000
408.000	3414.000
409.000	2544.000
410.000	2106.000
411.000	1803.000
412.000	1725.000
413.000	1569.000
414.000	1546.000
415.000	1504.000
416.000	1553.000
417.000	1557.000
418.000	1616.000
419.000	1639.000
420.000	1688.000
421.000	1775.000
422.000	1742.000
423.000	1976.000
424.000	2173.000
425.000	2586.000
426.000	3184.000
427.000	4046.000
428.000	5356.000
429.000	7463.000
430.000	10240.000
431.000	14602.000
432.000	19846.000
433.000	26932.000
434.000	34750.000
435.000	44844.000
436.000	54870.000
437.000	65346.000
438.000	74692.000
439.000	82282.000
440.000	86840.000
441.000	88165.000
442.000	87354.000
443.000	82508.000
444.000	74936.000
445.000	65884.000
446.000	56354.000
447.000	46400.000
448.000	37450.000
449.000	29918.000
450.000	24408.000
451.000	19596.000
452.000	16706.000
453.000	14518.000
454.000	13127.000
455.000	11938.000
456.000	11099.000
457.000	10156.000
458.000	9533.000
459.000	8514.000
460.000	7809.000
461.000	6647.000
462.000	5961.000
463.000	5375.000
464.000	5002.000
465.000	4754.000
466.000	4821.000
467.000	4950.000
468.000	5211.000
469.000	5803.000
470.000	6237.000
471.000	7070.000
472.000	7726.000
473.000	8734.000
474.000	10091.000
475.000	11408.000
476.000	12756.000
477.000	14237.000
478.000	15670.000
479.000	17169.000
480.000	18513.000
481.000	19631.000
482.000	19619.000
483.000	19618.000
484.000	19161.000
485.000	17964.000
486.000	16464.000
487.000	14630.000
488.000	12807.000
489.000	11299.000
490.000	9492.000
491.000	7960.000
492.000	6825.000
493.000	5880.000
494.000	5116.000
495.000	4653.000
496.000	4355.000
497.000	4015.000
498.000	4116.000
499.000	4081.000
500.000	4121.000
501.000	4222.000
502.000	4348.000
503.000	4433.000
504.000	4539.000
505.000	4706.000
506.000	4765.000
507.000	5102.000
508.000	5184.000
509.000	5196.000
510.000	5479.000
511.000	5413.000
512.000	5615.000
513.000	5996.000
514.000	6275.000
515.000	6330.000
516.000	6523.000
517.000	6789.000
518.000	6954.000
519.000	7347.000
520.000	7995.000
521.000	8441.000
522.000	8825.000
523.000	9370.000
524.000	10013.000
525.000	10615.000
526.000	11176.000
527.000	11597.000
528.000	11783.000
529.000	12120.000
530.000	12074.000
531.000	11516.000
532.000	10966.000
533.000	10306.000
534.000	9615.000
535.000	8727.000
536.000	8015.000
537.000	7515.000
538.000	6750.000
539.000	6292.000
540.000	6084.000
541.000	5819.000
542.000	5553.000
543.000	5457.000
544.000	5385.000
545.000	5385.000
546.000	5351.000
547.000	5297.000
548.000	5276.000
549.000	5427.000
550.000	5307.000
551.000	5352.000
552.000	5430.000
553.000	5455.000
554.000	5587.000
555.000	5655.000
556.000	5891.000
557.000	5981.000
558.000	6189.000
559.000	6508.000
560.000	7029.000
561.000	7650.000
562.000	8795.000
563.000	10078.000
564.000	12008.000
565.000	14374.000
566.000	17679.000
567.000	21703.000
568.000	26459.000
569.000	32008.000
570.000	38213.000
571.000	44371.000
572.000	51068.000
573.000	56564.000
574.000	61220.000
575.000	63841.000
576.000	65274.000
577.000	64619.000
578.000	62626.000
579.000	58207.000
580.000	52756.000
581.000	46781.000
582.000	40962.000
583.000	34679.000
584.000	28583.000
585.000	23541.000
586.000	19267.000
587.000	16189.000
588.000	13338.000
589.000	11467.000
590.000	9957.000
591.000	9183.000
592.000	8626.000
593.000	8335.000
594.000	8318.000
595.000	8539.000
596.000	8750.000
597.000	8796.000
598.000	9174.000
599.000	9787.000
600.000	10287.000
601.000	10997.000
602.000	11682.000
603.000	13254.000
604.000	15116.000
605.000	17735.000
606.000	22386.000
607.000	29115.000
608.000	39726.000
609.000	55124.000
610.000	79437.000
611.000	114371.000
612.000	163272.000
613.000	229564.000
614.000	318248.000
615.000	432479.000
616.000	573665.000
617.000	742606.000
618.000	931674.000
619.000	1139895.000
620.000	1349314.000
621.000	1554109.000
622.000	1740754.000
623.000	1895519.000
624.000	1998446.000
625.000	2046381.000
626.000	2035901.000
627.000	1962927.000
628.000	1839218.000
629.000	1667235.000
630.000	1474913.000
631.000	1260897.000
632.000	1050288.000
633.000	848971.000
634.000	668467.000
635.000	510527.000
636.000	381693.000
637.000	277691.000
638.000	198936.000
639.000	138950.000
640.000	96584.000
641.000	67473.000
642.000	47240.000
643.000	34014.000
644.000	25790.000
645.000	20480.000
646.000	17143.000
647.000	15076.000
648.000	13826.000
649.000	13371.000
650.000	12806.000
651.000	12424.000
652.000	12588.000
653.000	12604.000
654.000	12448.000
655.000	12693.000
656.000	12661.000
657.000	12734.000
658.000	12906.000
659.000	13326.000
660.000	13442.000
661.000	13918.000
662.000	14420.000
663.000	14784.000
664.000	15235.000
665.000	15789.000
666.000	16589.000
667.000	17538.000
668.000	18745.000
669.000	19984.000
670.000	21589.000
671.000	24210.000
672.000	27063.000
673.000	31207.000
674.000	36567.000
675.000	44005.000
676.000	53451.000
677.000	65722.000
678.000	81751.000
679.000	100648.000
680.000	123267.000
681.000	149625.000
682.000	179135.000
683.000	209544.000
684.000	240058.000
685.000	269134.000
686.000	294058.000
687.000	314193.000
688.000	327886.000
689.000	333640.000
690.000	328571.000
691.000	318563.000
692.000	298878.000
693.000	272616.000
694.000	244184.000
695.000	212485.000
696.000	181621.000
697.000	150520.000
698.000	122517.000
699.000	97725.000
700.000	76244.000
701.000	59636.000
702.000	45532.000
703.000	35547.000
704.000	27383.000
705.000	21841.000
706.000	17640.000
707.000	15087.000
708.000	13193.000
709.000	11954.000
710.000	11271.000
711.000	11170.000
712.000	10979.000
713.000	10682.000
714.000	10818.000
715.000	11310.000
716.000	11709.000
717.000	11837.000
718.000	12403.000
719.000	12802.000
720.000	13567.000
721.000	13789.000
722.000	14525.000
723.000	15536.000
724.000	15913.000
725.000	16366.000
726.000	16669.000
727.000	17592.000
728.000	17445.000
729.000	17864.000
730.000	18133.000
731.000	17650.000
732.000	17133.000
733.000	16876.000
734.000	16355.000
735.000	15856.000
736.000	15273.000
737.000	14805.000
738.000	14107.000
739.000	13640.000
740.000	13302.000
741.000	12877.000
742.000	12507.000
743.000	12358.000
744.000	12345.000
745.000	12205.000
746.000	12132.000
747.000	12038.000
748.000	12156.000
749.000	12367.000
750.000	12303.000
751.000	12094.000
752.000	12439.000
753.000	12319.000
754.000	12376.000
755.000	12343.000
756.000	12486.000
757.000	12554.000
758.000	12467.000
759.000	12608.000
760.000	12530.000
761.000	12670.000
762.000	12898.000
763.000	12869.000
764.000	13218.000
765.000	13332.000
766.000	13425.000
767.000	13485.000
768.000	13744.000
769.000	13953.000
770.000	14439.000
771.000	14558.000
772.000	15106.000
773.000	15781.000
774.000	16260.000
775.000	16762.000
776.000	17696.000
777.000	18776.000
778.000	19200.000
779.000	20192.000
780.000	21468.000
781.000	22076.000
782.000	23367.000
783.000	24202.000
784.000	25426.000
785.000	25639.000
786.000	26447.000
787.000	26949.000
788.000	26869.000
789.000	26918.000
790.000	27259.000
791.000	27154.000
792.000	27373.000
793.000	27006.000
794.000	26968.000
795.000	26812.000
796.000	26912.000
797.000	26722.000
798.000	26810.000
799.000	26732.000
800.000	26741.000
801.000	26565.000
802.000	26624.000
803.000	26737.000
804.000	27515.000
805.000	27900.000
806.000	28520.000
807.000	29329.000
808.000	30756.000
809.000	31859.000
810.000	33716.000
811.000	35440.000
812.000	37772.000
813.000	40194.000
814.000	42374.000
815.000	44228.000
816.000	46273.000
817.000	47757.000
818.000	49096.000
819.000	49188.000
820.000	48937.000
821.000	48156.000
822.000	46165.000
823.000	44878.000
824.000	42066.000
825.000	39859.000
826.000	37294.000
827.000	34151.000
828.000	31715.000
829.000	29340.000
830.000	27288.000
831.000	25691.000
832.000	24369.000
833.000	23649.000
834.000	23076.000
835.000	23023.000
836.000	23060.000
837.000	23386.000
838.000	23463.000
839.000	24009.000
840.000	24237.000
841.000	24743.000
842.000	24497.000
843.000	24869.000
844.000	24551.000
845.000	24606.000
846.000	24139.000
847.000	23684.000
848.000	23032.000
849.000	22741.000
850.000	22176.000
851.000	21708.000
852.000	21480.000
853.000	20845.000
854.000	20191.000
855.000	20106.000
856.000	19959.000
857.000	19858.000
858.000	19420.000
859.000	19261.000
860.000	19593.000
861.000	19265.000
862.000	19738.000
863.000	19558.000
864.000	19775.000
865.000	19458.000
866.000	20061.000
867.000	19988.000
868.000	20293.000
869.000	20016.000
870.000	20399.000
871.000	20351.000
872.000	20293.000
873.000	20237.000
874.000	20208.000
875.000	20287.000
876.000	20302.000
877.000	20264.000
878.000	20204.000
879.000	20166.000
880.000	20504.000
881.000	20464.000
882.000	20588.000
883.000	20646.000
884.000	20617.000
885.000	20662.000
886.000	21009.000
887.000	21260.000
888.000	21641.000
889.000	21545.000
890.000	21796.000
891.000	22406.000
892.000	22775.000
893.000	22847.000
894.000	23179.000
895.000	23558.000
896.000	23888.000
897.000	24555.000
898.000	24709.000
899.000	25348.000
900.000	25925.000
901.000	26530.000
902.000	26622.000
903.000	27181.000
904.000	27223.000
905.000	27749.000
906.000	27718.000
907.000	28244.000
908.000	28617.000
909.000	28938.000
910.000	29022.000
911.000	29305.000
912.000	29493.000
913.000	29559.000
914.000	29849.000
915.000	29821.000
916.000	29976.000
917.000	30142.000
918.000	30517.000
919.000	30351.000
920.000	30650.000
921.000	30763.000
922.000	30601.000
923.000	31254.000
924.000	31242.000
925.000	31415.000
926.000	31915.000
927.000	32147.000
928.000	32605.000
929.000	33162.000
930.000	33349.000
931.000	34202.000
932.000	35038.000
933.000	35038.000
934.000	36356.000
935.000	36968.000
936.000	38246.000
937.000	38575.000
938.000	39763.000
939.000	40975.000
940.000	41617.000
941.000	42648.000
942.000	42954.000
943.000	43138.000
944.000	43110.000
945.000	42376.000
946.000	41621.000
947.000	41329.000
948.000	40060.000
949.000	38885.000
950.000	37745.000
951.000	36456.000
952.000	35127.000
953.000	33859.000
954.000	33148.000
955.000	31924.000
956.000	31014.000
957.000	30283.000
958.000	29862.000
959.000	29265.000
960.000	29212.000
961.000	29345.000
962.000	28927.000
963.000	29418.000
964.000	29082.000
965.000	29308.000
966.000	29613.000
967.000	29850.000
968.000	30041.000
969.000	30434.000
970.000	30573.000
971.000	30492.000
972.000	30618.000
973.000	30447.000
974.000	30258.000
975.000	30051.000
976.000	29112.000
977.000	28830.000
978.000	28616.000
979.000	27910.000
980.000	27732.000
981.000	27149.000
982.000	26834.000
983.000	26144.000
984.000	25482.000
985.000	25283.000
986.000	25146.000
987.000	24924.000
988.000	24373.000
989.000	24466.000
990.000	24079.000
991.000	24203.000
992.000	23902.000
993.000	23670.000
994.000	23719.000
995.000	23420.000
996.000	23360.000
997.000	23061.000
998.000	23007.000
999.000	22894.000
1000.000	22927.000
1001.000	23060.000
1002.000	23026.000
1003.000	22881.000
1004.000	22499.000
1005.000	22516.000
1006.000	22759.000
1007.000	22681.000
1008.000	22795.000
1009.000	22996.000
1010.000	22881.000
1011.000	23212.000
1012.000	23048.000
1013.000	22814.000
1014.000	22964.000
1015.000	23423.000
1016.000	23523.000
1017.000	23483.000
1018.000	23513.000
1019.000	23832.000
1020.000	23742.000
1021.000	24358.000
1022.000	23940.000
1023.000	24238.000
1024.000	24690.000
1025.000	24849.000
1026.000	24926.000
1027.000	24733.000
1028.000	25373.000
1029.000	24994.000
1030.000	25104.000
1031.000	24942.000
1032.000	25262.000
1033.000	24825.000
1034.000	25484.000
1035.000	24870.000
1036.000	25081.000
1037.000	24651.000
1038.000	24997.000
1039.000	24970.000
1040.000	25144.000
1041.000	24820.000
1042.000	24934.000
1043.000	25204.000
1044.000	24743.000
1045.000	25156.000
1046.000	25173.000
1047.000	25119.000
1048.000	25392.000
1049.000	25192.000
1050.000	25255.000
1051.000	25507.000
1052.000	25451.000
1053.000	25817.000
1054.000	26031.000
1055.000	26226.000
1056.000	26201.000
1057.000	26123.000
1058.000	26448.000
1059.000	26278.000
1060.000	26247.000
1061.000	26512.000
1062.000	26684.000
1063.000	26797.000
1064.000	26785.000
1065.000	26394.000
1066.000	26541.000
1067.000	26593.000
1068.000	26684.000
1069.000	26547.000
1070.000	26437.000
1071.000	26840.000
1072.000	26642.000
1073.000	26628.000
1074.000	26320.000
1075.000	26299.000
1076.000	26435.000
1077.000	26292.000
1078.000	26324.000
1079.000	26479.000
1080.000	26456.000
1081.000	26595.000
1082.000	26316.000
1083.000	26447.000
1084.000	26411.000
1085.000	26232.000
1086.000	26348.000
1087.000	26323.000
1088.000	26518.000
1089.000	26867.000
1090.000	27067.000
1091.000	26859.000
1092.000	27180.000
1093.000	27675.000
1094.000	27915.000
1095.000	27756.000
1096.000	27805.000
1097.000	28194.000
1098.000	28451.000
1099.000	28708.000
1100.000	28465.000
1101.000	29038.000
1102.000	28476.000
1103.000	28591.000
1104.000	28702.000
1105.000	28045.000
1106.000	28437.000
1107.000	28417.000
1108.000	27781.000
1109.000	27571.000
1110.000	27136.000
1111.000	27463.000
1112.000	27033.000
1113.000	26915.000
1114.000	27012.000
1115.000	26666.000
1116.000	26490.000
1117.000	26678.000
1118.000	26313.000
1119.000	26262.000
1120.000	26053.000
1121.000	26417.000
1122.000	26540.000
1123.000	26480.000
1124.000	26435.000
1125.000	26611.000
1126.000	26470.000
1127.000	26490.000
1128.000	26727.000
1129.000	26745.000
1130.000	26646.000
1131.000	26790.000
1132.000	26729.000
1133.000	26762.000
1134.000	27124.000
1135.000	27094.000
1136.000	27204.000
1137.000	26985.000
1138.000	26835.000
1139.000	27015.000
1140.000	26992.000
1141.000	27020.000
1142.000	27077.000
1143.000	27301.000
1144.000	27415.000
1145.000	27030.000
1146.000	27482.000
1147.000	27548.000
1148.000	27491.000
1149.000	27756.000
1150.000	28210.000
1151.000	28316.000
1152.000	28426.000
1153.000	28836.000
1154.000	28998.000
1155.000	29858.000
1156.000	29812.000
1157.000	30287.000
1158.000	30659.000
1159.000	30641.000
1160.000	31090.000
1161.000	30960.000
1162.000	31070.000
1163.000	31009.000
1164.000	30996.000
1165.000	30519.000
1166.000	30574.000
1167.000	30386.000
1168.000	30098.000
1169.000	29432.000
1170.000	29046.000
1171.000	28796.000
1172.000	28211.000
1173.000	28048.000
1174.000	27757.000
1175.000	27312.000
1176.000	27363.000
1177.000	27174.000
1178.000	26986.000
1179.000	26760.000
1180.000	26638.000
1181.000	26588.000
1182.000	26676.000
1183.000	26456.000
1184.000	26430.000
1185.000	26310.000
1186.000	26701.000
1187.000	26289.000
1188.000	26284.000
1189.000	26225.000
1190.000	26392.000
1191.000	26255.000
1192.000	26230.000
1193.000	26133.000
1194.000	26505.000
1195.000	26594.000
1196.000	26692.000
1197.000	26393.000
1198.000	26688.000
1199.000	26394.000
1200.000	26660.000
1201.000	26553.000
1202.000	26619.000
1203.000	27053.000
1204.000	26603.000
1205.000	26790.000
1206.000	26604.000
1207.000	26984.000
1208.000	26867.000
1209.000	26778.000
1210.000	26994.000
1211.000	26887.000
1212.000	27125.000
1213.000	27248.000
1214.000	27288.000
1215.000	27115.000
1216.000	27183.000
1217.000	27494.000
1218.000	27363.000
1219.000	27116.000
1220.000	27326.000
1221.000	27556.000
1222.000	27650.000
1223.000	28052.000
1224.000	27962.000
1225.000	28066.000
1226.000	27746.000
1227.000	27922.000
1228.000	28046.000
1229.000	28205.000
1230.000	28592.000
1231.000	28329.000
1232.000	28651.000
1233.000	28480.000
1234.000	28357.000
1235.000	28612.000
1236.000	28319.000
1237.000	28285.000
1238.000	28471.000
1239.000	28595.000
1240.000	28569.000
1241.000	28877.000
1242.000	28465.000
1243.000	29005.000
1244.000	28974.000
1245.000	28819.000
1246.000	28708.000
1247.000	28957.000
1248.000	29073.000
1249.000	29019.000
1250.000	29153.000
1251.000	28856.000
1252.000	28636.000
1253.000	28666.000
1254.000	29137.000
1255.000	28873.000
1256.000	28673.000
1257.000	28805.000
1258.000	28547.000
1259.000	28512.000
1260.000	28075.000
1261.000	28361.000
1262.000	28366.000
1263.000	28190.000
1264.000	28290.000
1265.000	28246.000
1266.000	28032.000
1267.000	28196.000
1268.000	28325.000
1269.000	28256.000
1270.000	27976.000
1271.000	28376.000
1272.000	27989.000
1273.000	28112.000
1274.000	27992.000
1275.000	28180.000
1276.000	28056.000
1277.000	27799.000
1278.000	27864.000
1279.000	28094.000
1280.000	28300.000
1281.000	28504.000
1282.000	28255.000
1283.000	28554.000
1284.000	28528.000
1285.000	28978.000
1286.000	29206.000
1287.000	29266.000
1288.000	29181.000
1289.000	29687.000
1290.000	30099.000
1291.000	30654.000
1292.000	30645.000
1293.000	31360.000
1294.000	31499.000
1295.000	32346.000
1296.000	32904.000
1297.000	33373.000
1298.000	33933.000
1299.000	34154.000
1300.000	34393.000
1301.000	35032.000
1302.000	35724.000
1303.000	35409.000
1304.000	35379.000
1305.000	35727.000
1306.000	36071.000
1307.000	34803.000
1308.000	35239.000
1309.000	34898.000
1310.000	34490.000
1311.000	34201.000
1312.000	33644.000
1313.000	32973.000
1314.000	32869.000
1315.000	32226.000
1316.000	31627.000
1317.000	31465.000
1318.000	30435.000
1319.000	30369.000
1320.000	29858.000
1321.000	29919.000
1322.000	29531.000
1323.000	29390.000
1324.000	29197.000
1325.000	29400.000
1326.000	28919.000
1327.000	29129.000
1328.000	28767.000
1329.000	28948.000
1330.000	28976.000
1331.000	28652.000
1332.000	28876.000
1333.000	28768.000
1334.000	29021.000
1335.000	28594.000
1336.000	28720.000
1337.000	28791.000
1338.000	28950.000
1339.000	28767.000
1340.000	28981.000
1341.000	28776.000
1342.000	28791.000
1343.000	28830.000
1344.000	28924.000
1345.000	28943.000
1346.000	28996.000
1347.000	29224.000
1348.000	29128.000
1349.000	29331.000
1350.000	28961.000
1351.000	29426.000
1352.000	29739.000
1353.000	29885.000
1354.000	29866.000
1355.000	30633.000
1356.000	31054.000
1357.000	31954.000
1358.000	32881.000
1359.000	34070.000
1360.000	35403.000
1361.000	37038.000
1362.000	39406.000
1363.000	41659.000
1364.000	44317.000
1365.000	47489.000
1366.000	50400.000
1367.000	54954.000
1368.000	59257.000
1369.000	63962.000
1370.000	68225.000
1371.000	73054.000
1372.000	78058.000
1373.000	82238.000
1374.000	87018.000
1375.000	91366.000
1376.000	95433.000
1377.000	97065.000
1378.000	99256.000
1379.000	100403.000
1380.000	100032.000
1381.000	99741.000
1382.000	97795.000
1383.000	95422.000
1384.000	91693.000
1385.000	88369.000
1386.000	83712.000
1387.000	79573.000
1388.000	73657.000
1389.000	69212.000
1390.000	64177.000
1391.000	59622.000
1392.000	54774.000
1393.000	50869.000
1394.000	46904.000
1395.000	43602.000
1396.000	40852.000
1397.000	38129.000
1398.000	36366.000
1399.000	34435.000
1400.000	32865.000
1401.000	31918.000
1402.000	31063.000
1403.000	30421.000
1404.000	29891.000
1405.000	29152.000
1406.000	29344.000
1407.000	28850.000
1408.000	28767.000
1409.000	28646.000
1410.000	28902.000
1411.000	28693.000
1412.000	28379.000
1413.000	28343.000
1414.000	28458.000
1415.000	28272.000
1416.000	28384.000
1417.000	28173.000
1418.000	28065.000
1419.000	28118.000
1420.000	28139.000
1421.000	28384.000
1422.000	28629.000
1423.000	28265.000
1424.000	28248.000
1425.000	28623.000
1426.000	28447.000
1427.000	28728.000
1428.000	28679.000
1429.000	28480.000
1430.000	28394.000
1431.000	28662.000
1432.000	28663.000
1433.000	28600.000
1434.000	28772.000
1435.000	28503.000
1436.000	28754.000
1437.000	28679.000
1438.000	28643.000
1439.000	29500.000
1440.000	28908.000
1441.000	29440.000
1442.000	29486.000
1443.000	29499.000
1444.000	29673.000
1445.000	30012.000
1446.000	29781.000
1447.000	30072.000
1448.000	30664.000
1449.000	30648.000
1450.000	31033.000
1451.000	31304.000
1452.000	31259.000
1453.000	31299.000
1454.000	31477.000
1455.000	31683.000
1456.000	31850.000
1457.000	31675.000
1458.000	31996.000
1459.000	31933.000
1460.000	31403.000
1461.000	31351.000
1462.000	31477.000
1463.000	31588.000
1464.000	31472.000
1465.000	31392.000
1466.000	30889.000
1467.000	30636.000
1468.000	30757.000
1469.000	30327.000
1470.000	30027.000
1471.000	30096.000
1472.000	30106.000
1473.000	29744.000
1474.000	29482.000
1475.000	29623.000
1476.000	29897.000
1477.000	29720.000
1478.000	29345.000
1479.000	29646.000
1480.000	29416.000
1481.000	29361.000
1482.000	29324.000
1483.000	29437.000
1484.000	29340.000
1485.000	29679.000
1486.000	29675.000
1487.000	29653.000
1488.000	29365.000
1489.000	29646.000
1490.000	29591.000
1491.000	29945.000
1492.000	29679.000
1493.000	29845.000
1494.000	29888.000
1495.000	29513.000
1496.000	29878.000
1497.000	29927.000
1498.000	29618.000
1499.000	29891.000
1500.000	29803.000
1501.000	29988.000
1502.000	30191.000
1503.000	30274.000
1504.000	29958.000
1505.000	30114.000
1506.000	30335.000
1507.000	30620.000
1508.000	30515.000
1509.000	30150.000
1510.000	30423.000
1511.000	30736.000
1512.000	30538.000
1513.000	31035.000
1514.000	31668.000
1515.000	31599.000
1516.000	31675.000
1517.000	32080.000
1518.000	32508.000
1519.000	32822.000
1520.000	33398.000
1521.000	33792.000
1522.000	34043.000
1523.000	34944.000
1524.000	35698.000
1525.000	36044.000
1526.000	36902.000
1527.000	37789.000
1528.000	38378.000
1529.000	39404.000
1530.000	40610.000
1531.000	41498.000
1532.000	42474.000
1533.000	43498.000
1534.000	44731.000
1535.000	45892.000
1536.000	46670.000
1537.000	47905.000
1538.000	48897.000
1539.000	48995.000
1540.000	49568.000
1541.000	49989.000
1542.000	50624.000
1543.000	51223.000
1544.000	50846.000
1545.000	50518.000
1546.000	50195.000
1547.000	49797.000
1548.000	48956.000
1549.000	48426.000
1550.000	47789.000
1551.000	46898.000
1552.000	46228.000
1553.000	45666.000
1554.000	44967.000
1555.000	44968.000
1556.000	44173.000
1557.000	43299.000
1558.000	43995.000
1559.000	43623.000
1560.000	43855.000
1561.000	43708.000
1562.000	44565.000
1563.000	44843.000
1564.000	45068.000
1565.000	46028.000
1566.000	46686.000
1567.000	47792.000
1568.000	48702.000
1569.000	49595.000
1570.000	50536.000
1571.000	51569.000
1572.000	52815.000
1573.000	53986.000
1574.000	55276.000
1575.000	56468.000
1576.000	58076.000
1577.000	58992.000
1578.000	60451.000
1579.000	62343.000
1580.000	64167.000
1581.000	65820.000
1582.000	67552.000
1583.000	69216.000
1584.000	71377.000
1585.000	73236.000
1586.000	75512.000
1587.000	77025.000
1588.000	78901.000
1589.000	81075.000
1590.000	83514.000
1591.000	85423.000
1592.000	87367.000
1593.000	89151.000
1594.000	91073.000
1595.000	92695.000
1596.000	94928.000
1597.000	96291.000
1598.000	97990.000
1599.000	99107.000
1600.000	100537.000
1601.000	101697.000
1602.000	102768.000
1603.000	102701.000
1604.000	104008.000
1605.000	104375.000
1606.000	104276.000
1607.000	105036.000
1608.000	105279.000
1609.000	105833.000
1610.000	104784.000
1611.000	104726.000
1612.000	104127.000
1613.000	103459.000
1614.000	102372.000
1615.000	101100.000
1616.000	100118.000
1617.000	98778.000
1618.000	97538.000
1619.000	95909.000
1620.000	93824.000
1621.000	92794.000
1622.000	90814.000
1623.000	88258.000
1624.000	87009.000
1625.000	84998.000
1626.000	83005.000
1627.000	81001.000
1628.000	78702.000
1629.000	76376.000
1630.000	74637.000
1631.000	72563.000
1632.000	70196.000
1633.000	68085.000
1634.000	66285.000
1635.000	64835.000
1636.000	62298.000
1637.000	60556.000
1638.000	58735.000
1639.000	57249.000
1640.000	55194.000
1641.000	53540.000
1642.000	52164.000
1643.000	51013.000
1644.000	49428.000
1645.000	47937.000
1646.000	46597.000
1647.000	45463.000
1648.000	44178.000
1649.000	42974.000
1650.000	42336.000
1651.000	40609.000
1652.000	40116.000
1653.000	39144.000
1654.000	38338.000
1655.000	37320.000
1656.000	36777.000
1657.000	35923.000
1658.000	35275.000
1659.000	34809.000
1660.000	34439.000
1661.000	33744.000
1662.000	32823.000
1663.000	32497.000
1664.000	32127.000
1665.000	31834.000
1666.000	31614.000
1667.000	31191.000
1668.000	31142.000
1669.000	30984.000
1670.000	30762.000
1671.000	30743.000
1672.000	30722.000
1673.000	30717.000
1674.000	30699.000
1675.000	31415.000
1676.000	32036.000
1677.000	32818.000
1678.000	33515.000
1679.000	34728.000
1680.000	35540.000
1681.000	36958.000
1682.000	38442.000
1683.000	40732.000
1684.000	42781.000
1685.000	45089.000
1686.000	47757.000
1687.000	50591.000
1688.000	53806.000
1689.000	56695.000
1690.000	60172.000
1691.000	63426.000
1692.000	66582.000
1693.000	69808.000
1694.000	72999.000
1695.000	75364.000
1696.000	78770.000
1697.000	80845.000
1698.000	82382.000
1699.000	83598.000
1700.000	85162.000
1701.000	85597.000
1702.000	85611.000
1703.000	85181.000
1704.000	84347.000
1705.000	81963.000
1706.000	80005.000
1707.000	78270.000
1708.000	74523.000
1709.000	71366.000
1710.000	67832.000
1711.000	64617.000
1712.000	60904.000
1713.000	56602.000
1714.000	53102.000
1715.000	49962.000
1716.000	46450.000
1717.000	43462.000
1718.000	40825.000
1719.000	37975.000
1720.000	35570.000
1721.000	33695.000
1722.000	31871.000
1723.000	30296.000
1724.000	29273.000
1725.000	27930.000
1726.000	27202.000
1727.000	26404.000
1728.000	25733.000
1729.000	25356.000
1730.000	24899.000
1731.000	24646.000
1732.000	24268.000
1733.000	24087.000
1734.000	24315.000
1735.000	23970.000
1736.000	24174.000
1737.000	24003.000
1738.000	23728.000
1739.000	23840.000
1740.000	23868.000
1741.000	23842.000
1742.000	23674.000
1743.000	24013.000
1744.000	23908.000
1745.000	24207.000
1746.000	24456.000
1747.000	24351.000
1748.000	24627.000
1749.000	24328.000
1750.000	24611.000
1751.000	24518.000
1752.000	25065.000
1753.000	24989.000
1754.000	25141.000
1755.000	25104.000
1756.000	25194.000
1757.000	25677.000
1758.000	25697.000
1759.000	25773.000
1760.000	26216.000
1761.000	26174.000
1762.000	26550.000
1763.000	26938.000
1764.000	26983.000
1765.000	27382.000
1766.000	27455.000
1767.000	27861.000
1768.000	27933.000
1769.000	28111.000
1770.000	28908.000
1771.000	29007.000
1772.000	29394.000
1773.000	29443.000
1774.000	29736.000
1775.000	30042.000
1776.000	30470.000
1777.000	30670.000
1778.000	31087.000
1779.000	31221.000
1780.000	31365.000
1781.000	31549.000
1782.000	31882.000
1783.000	32341.000
1784.000	32313.000
1785.000	32685.000
1786.000	32874.000
1787.000	33365.000
1788.000	33237.000
1789.000	33002.000
1790.000	33246.000
1791.000	33174.000
1792.000	33122.000
1793.000	32778.000
1794.000	33200.000
1795.000	32962.000
1796.000	32855.000
1797.000	33203.000
1798.000	32482.000
1799.000	32885.000
1800.000	32242.000
1801.000	32350.000
1802.000	32196.000
1803.000	31931.000
1804.000	31884.000
1805.000	31316.000
1806.000	31233.000
1807.000	30920.000
1808.000	30455.000
1809.000	30447.000
1810.000	30000.000
1811.000	29417.000
1812.000	29355.000
1813.000	28439.000
1814.000	28705.000
1815.000	27899.000
1816.000	27871.000
1817.000	27229.000
1818.000	26645.000
1819.000	26493.000
1820.000	26288.000
1821.000	25753.000
1822.000	25236.000
1823.000	25122.000
1824.000	24342.000
1825.000	23862.000
1826.000	23648.000
1827.000	23283.000
1828.000	23154.000
1829.000	22461.000
1830.000	22050.000
1831.000	21527.000
1832.000	21465.000
1833.000	20937.000
1834.000	20745.000
1835.000	20292.000
1836.000	20050.000
1837.000	19925.000
1838.000	19513.000
1839.000	19188.000
1840.000	18813.000
1841.000	18581.000
1842.000	18441.000
1843.000	18149.000
1844.000	18100.000
1845.000	17623.000
1846.000	17435.000
1847.000	17074.000
1848.000	16781.000
1849.000	16651.000
1850.000	16444.000
1851.000	16455.000
1852.000	16142.000
1853.000	15734.000
1854.000	15605.000
1855.000	15558.000
1856.000	14984.000
1857.000	15193.000
1858.000	14838.000
1859.000	14854.000
1860.000	14518.000
1861.000	14453.000
1862.000	14116.000
1863.000	14039.000
1864.000	13998.000
1865.000	13846.000
1866.000	13913.000
1867.000	13431.000
1868.000	13602.000
1869.000	13518.000
1870.000	13227.000
1871.000	13239.000
1872.000	13214.000
1873.000	13069.000
1874.000	12988.000
1875.000	12816.000
1876.000	12886.000
1877.000	12828.000
1878.000	12574.000
1879.000	12687.000
1880.000	12682.000
1881.000	12405.000
1882.000	12405.000
1883.000	12457.000
1884.000	12567.000
1885.000	12393.000
1886.000	12261.000
1887.000	12439.000
1888.000	12326.000
1889.000	12582.000
1890.000	12687.000
1891.000	12684.000
1892.000	12859.000
1893.000	13398.000
1894.000	13428.000
1895.000	13833.000
1896.000	14012.000
1897.000	14211.000
1898.000	14807.000
1899.000	15132.000
1900.000	15406.000
1901.000	16191.000
1902.000	16664.000
1903.000	17204.000
1904.000	17918.000
1905.000	18125.000
1906.000	18848.000
1907.000	18937.000
1908.000	19485.000
1909.000	19374.000
1910.000	19823.000
1911.000	19758.000
1912.000	19715.000
1913.000	19655.000
1914.000	19359.000
1915.000	19016.000
1916.000	18509.000
1917.000	18235.000
1918.000	17834.000
1919.000	17086.000
1920.000	16567.000
1921.000	16264.000
1922.000	15541.000
1923.000	15076.000
1924.000	14405.000
1925.000	13974.000
1926.000	13497.000
1927.000	13157.000
1928.000	12931.000
1929.000	12550.000
1930.000	12053.000
1931.000	11998.000
1932.000	11876.000
1933.000	11744.000
1934.000	11384.000
1935.000	11300.000
1936.000	11396.000
1937.000	11248.000
1938.000	11391.000
1939.000	11100.000
1940.000	11240.000
1941.000	11030.000
1942.000	11341.000
1943.000	11007.000
1944.000	11175.000
1945.000	11042.000
1946.000	11036.000
1947.000	11054.000
1948.000	10864.000
1949.000	10631.000
1950.000	10708.000
1951.000	10557.000
1952.000	10590.000
1953.000	10333.000
1954.000	10064.000
1955.000	10066.000
1956.000	9905.000
1957.000	9814.000
1958.000	9674.000
1959.000	9521.000
1960.000	9269.000
1961.000	9196.000
1962.000	9390.000
1963.000	9220.000
1964.000	9142.000
1965.000	9078.000
1966.000	8956.000
1967.000	8736.000
1968.000	8790.000
1969.000	8899.000
1970.000	8741.000
1971.000	8665.000
1972.000	8653.000
1973.000	8797.000
1974.000	8774.000
1975.000	8591.000
1976.000	8600.000
1977.000	8522.000
1978.000	8608.000
1979.000	8630.000
1980.000	8498.000
1981.000	8677.000
1982.000	8530.000
1983.000	8382.000
1984.000	8378.000
1985.000	8544.000
1986.000	8401.000
1987.000	8396.000
1988.000	8483.000
1989.000	8584.000
1990.000	8274.000
1991.000	8516.000
1992.000	8412.000
1993.000	8495.000
1994.000	8478.000
1995.000	8570.000
1996.000	8464.000
1997.000	8484.000
1998.000	8368.000
1999.000	8493.000
2000.000	8628.000
2001.000	8409.000
2002.000	8376.000
2003.000	8248.000
2004.000	8265.000
2005.000	8384.000
2006.000	8413.000
2007.000	8391.000
2008.000	8344.000
2009.000	8486.000
2010.000	8326.000
2011.000	8444.000
2012.000	8204.000
2013.000	8243.000
2014.000	8112.000
2015.000	8047.000
2016.000	8230.000
2017.000	8220.000
2018.000	7984.000
2019.000	8113.000
2020.000	8187.000
2021.000	8241.000
2022.000	8148.000
2023.000	7982.000
2024.000	8189.000
2025.000	8151.000
2026.000	7991.000
2027.000	8188.000
2028.000	8027.000
2029.000	8037.000
2030.000	8027.000
2031.000	7823.000
2032.000	7848.000
2033.000	7999.000
2034.000	7930.000
2035.000	7937.000
2036.000	7938.000
2037.000	7916.000
2038.000	7890.000
2039.000	7913.000
2040.000	7909.000
2041.000	7990.000
2042.000	7799.000
2043.000	7783.000
2044.000	7743.000
2045.000	7955.000
2046.000	7729.000
2047.000	7763.000
2048.000	0.000
