Date:	22-Sep-20		Time:	10:49 PM		Version no:	0.00		Project name:	55		Sample name:	222		Section name:	section		Position	0.000000	mm	E0	0.000000	keV	E1	1.000000	keV/channel	sample surface	2.000000	cm	Tube anode:	Mo		Tube voltage:	30	kV	Tube current:	30	mA	gain	15		std. database			resultfile	result		matrix element	11		sample thickness	1.000000		air passage	0.560000	cm	comments	not in position		peaking_time	0.300000	m-sec	trigger_threshold	40.000000	V	mca_bin_width	2.000000	no:	number_mca_channels	2048.000000	no:	gap_time	2048.000000	m-sec	trigger_peaking_time	2048.000000	m-sec	GAINDAC	400		HIGHGAIN	400		TAURC	400		RCTAU	400		RCTAUFRAC	400		livetime	12.778311	seconds	runtime	15.000098	seconds	input_count_rate	8453.386602	cps	output_count_rate	7201.286285	cps	triggers	126178	seconds	events_in_run	98622	seconds	channel	content		1.000	0.000
2.000	0.000
3.000	0.000
4.000	0.000
5.000	0.000
6.000	0.000
7.000	0.000
8.000	0.000
9.000	0.000
10.000	0.000
11.000	0.000
12.000	0.000
13.000	0.000
14.000	0.000
15.000	0.000
16.000	0.000
17.000	0.000
18.000	0.000
19.000	0.000
20.000	0.000
21.000	0.000
22.000	0.000
23.000	0.000
24.000	0.000
25.000	0.000
26.000	0.000
27.000	0.000
28.000	0.000
29.000	0.000
30.000	0.000
31.000	397.000
32.000	394.000
33.000	405.000
34.000	378.000
35.000	386.000
36.000	401.000
37.000	387.000
38.000	392.000
39.000	353.000
40.000	379.000
41.000	361.000
42.000	379.000
43.000	396.000
44.000	387.000
45.000	405.000
46.000	475.000
47.000	541.000
48.000	672.000
49.000	909.000
50.000	1191.000
51.000	1798.000
52.000	2500.000
53.000	3368.000
54.000	4563.000
55.000	6036.000
56.000	7967.000
57.000	10986.000
58.000	16015.000
59.000	22543.000
60.000	28505.000
61.000	33031.000
62.000	36364.000
63.000	37676.000
64.000	37339.000
65.000	36304.000
66.000	34876.000
67.000	33720.000
68.000	32720.000
69.000	32289.000
70.000	31608.000
71.000	31219.000
72.000	30781.000
73.000	31031.000
74.000	30505.000
75.000	30133.000
76.000	30037.000
77.000	29869.000
78.000	29945.000
79.000	29712.000
80.000	29894.000
81.000	29761.000
82.000	30502.000
83.000	30829.000
84.000	30980.000
85.000	31227.000
86.000	31206.000
87.000	30417.000
88.000	30200.000
89.000	29395.000
90.000	29154.000
91.000	28336.000
92.000	27133.000
93.000	27078.000
94.000	26949.000
95.000	26540.000
96.000	25927.000
97.000	26093.000
98.000	25724.000
99.000	25358.000
100.000	25340.000
101.000	25132.000
102.000	24669.000
103.000	24373.000
104.000	24467.000
105.000	24217.000
106.000	23857.000
107.000	23721.000
108.000	23435.000
109.000	23254.000
110.000	22850.000
111.000	23155.000
112.000	22323.000
113.000	22157.000
114.000	21915.000
115.000	22201.000
116.000	22194.000
117.000	22193.000
118.000	21997.000
119.000	21769.000
120.000	21536.000
121.000	21341.000
122.000	21123.000
123.000	20631.000
124.000	20354.000
125.000	19797.000
126.000	19498.000
127.000	19525.000
128.000	19480.000
129.000	18992.000
130.000	18971.000
131.000	18665.000
132.000	18783.000
133.000	18611.000
134.000	18539.000
135.000	18689.000
136.000	18464.000
137.000	18770.000
138.000	19432.000
139.000	20203.000
140.000	21571.000
141.000	23400.000
142.000	26052.000
143.000	28248.000
144.000	30242.000
145.000	31594.000
146.000	32266.000
147.000	31178.000
148.000	29857.000
149.000	27760.000
150.000	26145.000
151.000	24685.000
152.000	23587.000
153.000	22845.000
154.000	22040.000
155.000	21381.000
156.000	20476.000
157.000	19286.000
158.000	18484.000
159.000	17898.000
160.000	17446.000
161.000	17763.000
162.000	19685.000
163.000	22445.000
164.000	28081.000
165.000	35826.000
166.000	45868.000
167.000	57580.000
168.000	69666.000
169.000	79740.000
170.000	86228.000
171.000	87413.000
172.000	83602.000
173.000	75508.000
174.000	65513.000
175.000	54956.000
176.000	45930.000
177.000	39539.000
178.000	36034.000
179.000	34932.000
180.000	35666.000
181.000	38731.000
182.000	44842.000
183.000	54738.000
184.000	69674.000
185.000	90709.000
186.000	118267.000
187.000	150888.000
188.000	183700.000
189.000	212750.000
190.000	233794.000
191.000	239962.000
192.000	232471.000
193.000	209802.000
194.000	179795.000
195.000	143369.000
196.000	109589.000
197.000	80083.000
198.000	57625.000
199.000	41435.000
200.000	30575.000
201.000	24464.000
202.000	20719.000
203.000	18444.000
204.000	17810.000
205.000	17417.000
206.000	17330.000
207.000	17255.000
208.000	17620.000
209.000	18113.000
210.000	18018.000
211.000	18599.000
212.000	19103.000
213.000	20281.000
214.000	21224.000
215.000	23084.000
216.000	25765.000
217.000	29043.000
218.000	32953.000
219.000	37238.000
220.000	41888.000
221.000	45352.000
222.000	48259.000
223.000	48712.000
224.000	47638.000
225.000	45671.000
226.000	41782.000
227.000	37300.000
228.000	32746.000
229.000	28433.000
230.000	24668.000
231.000	21440.000
232.000	19347.000
233.000	17397.000
234.000	16221.000
235.000	15576.000
236.000	15165.000
237.000	15063.000
238.000	14837.000
239.000	14872.000
240.000	14993.000
241.000	14991.000
242.000	15154.000
243.000	15720.000
244.000	16758.000
245.000	17945.000
246.000	20591.000
247.000	24753.000
248.000	31746.000
249.000	41913.000
250.000	56565.000
251.000	75774.000
252.000	98164.000
253.000	124072.000
254.000	148925.000
255.000	171903.000
256.000	187139.000
257.000	191906.000
258.000	187515.000
259.000	174214.000
260.000	152348.000
261.000	126735.000
262.000	101409.000
263.000	76587.000
264.000	58222.000
265.000	43591.000
266.000	34388.000
267.000	28620.000
268.000	25867.000
269.000	25381.000
270.000	26392.000
271.000	28370.000
272.000	30609.000
273.000	32757.000
274.000	34760.000
275.000	36266.000
276.000	36272.000
277.000	36061.000
278.000	34969.000
279.000	34197.000
280.000	33476.000
281.000	33849.000
282.000	36071.000
283.000	40268.000
284.000	46157.000
285.000	53458.000
286.000	62047.000
287.000	70670.000
288.000	78200.000
289.000	82183.000
290.000	83436.000
291.000	81844.000
292.000	75957.000
293.000	68674.000
294.000	59416.000
295.000	50266.000
296.000	41935.000
297.000	35025.000
298.000	30096.000
299.000	26090.000
300.000	24332.000
301.000	22811.000
302.000	22430.000
303.000	22878.000
304.000	23464.000
305.000	24511.000
306.000	25870.000
307.000	27743.000
308.000	29470.000
309.000	31757.000
310.000	34523.000
311.000	37865.000
312.000	41763.000
313.000	48275.000
314.000	57752.000
315.000	71718.000
316.000	92035.000
317.000	120773.000
318.000	157245.000
319.000	201449.000
320.000	249748.000
321.000	300259.000
322.000	344083.000
323.000	378494.000
324.000	396644.000
325.000	399405.000
326.000	380100.000
327.000	346643.000
328.000	302258.000
329.000	251915.000
330.000	199727.000
331.000	153248.000
332.000	115307.000
333.000	85490.000
334.000	63660.000
335.000	49561.000
336.000	41551.000
337.000	38006.000
338.000	38311.000
339.000	40551.000
340.000	45605.000
341.000	53376.000
342.000	65060.000
343.000	82290.000
344.000	106754.000
345.000	146271.000
346.000	208038.000
347.000	307517.000
348.000	471644.000
349.000	734282.000
350.000	1146145.000
351.000	1772433.000
352.000	2688192.000
353.000	3954263.000
354.000	5608279.000
355.000	7651096.000
356.000	10016982.000
357.000	12534329.000
358.000	14988482.000
359.000	17136389.000
360.000	18727719.000
361.000	19473882.000
362.000	19347376.000
363.000	18343580.000
364.000	16617802.000
365.000	14314886.000
366.000	11789021.000
367.000	9277162.000
368.000	6970148.000
369.000	4999330.000
370.000	3434319.000
371.000	2267307.000
372.000	1440676.000
373.000	890898.000
374.000	544557.000
375.000	340305.000
376.000	229061.000
377.000	175871.000
378.000	161698.000
379.000	173736.000
380.000	209278.000
381.000	268798.000
382.000	358734.000
383.000	486526.000
384.000	659866.000
385.000	884701.000
386.000	1155750.000
387.000	1476562.000
388.000	1821239.000
389.000	2168612.000
390.000	2484323.000
391.000	2736399.000
392.000	2884497.000
393.000	2920068.000
394.000	2835006.000
395.000	2637632.000
396.000	2345632.000
397.000	2002924.000
398.000	1636711.000
399.000	1283914.000
400.000	963623.000
401.000	695759.000
402.000	483439.000
403.000	322701.000
404.000	208726.000
405.000	131398.000
406.000	82067.000
407.000	50875.000
408.000	32262.000
409.000	21504.000
410.000	16016.000
411.000	12479.000
412.000	10907.000
413.000	9885.000
414.000	9704.000
415.000	9389.000
416.000	9264.000
417.000	9467.000
418.000	9429.000
419.000	9381.000
420.000	9594.000
421.000	9619.000
422.000	10048.000
423.000	10511.000
424.000	11271.000
425.000	12442.000
426.000	14488.000
427.000	17494.000
428.000	22544.000
429.000	29567.000
430.000	39862.000
431.000	54559.000
432.000	73199.000
433.000	97789.000
434.000	126818.000
435.000	161169.000
436.000	195474.000
437.000	231381.000
438.000	265766.000
439.000	291650.000
440.000	309935.000
441.000	316390.000
442.000	311191.000
443.000	293139.000
444.000	267822.000
445.000	236130.000
446.000	202387.000
447.000	167384.000
448.000	136016.000
449.000	109435.000
450.000	89058.000
451.000	73126.000
452.000	61841.000
453.000	54355.000
454.000	49009.000
455.000	45802.000
456.000	42732.000
457.000	39931.000
458.000	37186.000
459.000	34000.000
460.000	30812.000
461.000	28470.000
462.000	25658.000
463.000	23665.000
464.000	22129.000
465.000	21664.000
466.000	21487.000
467.000	21805.000
468.000	22971.000
469.000	24500.000
470.000	26289.000
471.000	28278.000
472.000	31285.000
473.000	34547.000
474.000	38501.000
475.000	42682.000
476.000	47956.000
477.000	53107.000
478.000	58640.000
479.000	63463.000
480.000	68304.000
481.000	71071.000
482.000	72674.000
483.000	72651.000
484.000	71186.000
485.000	66993.000
486.000	62176.000
487.000	56632.000
488.000	49887.000
489.000	43760.000
490.000	37783.000
491.000	33070.000
492.000	28534.000
493.000	25133.000
494.000	23235.000
495.000	21405.000
496.000	20456.000
497.000	19671.000
498.000	19673.000
499.000	19378.000
500.000	20075.000
501.000	20314.000
502.000	20855.000
503.000	21382.000
504.000	22078.000
505.000	22397.000
506.000	23125.000
507.000	23528.000
508.000	24266.000
509.000	25329.000
510.000	25517.000
511.000	26580.000
512.000	27277.000
513.000	28073.000
514.000	28761.000
515.000	29647.000
516.000	30649.000
517.000	32217.000
518.000	33169.000
519.000	34990.000
520.000	37200.000
521.000	39518.000
522.000	41608.000
523.000	44635.000
524.000	47725.000
525.000	50661.000
526.000	53228.000
527.000	55514.000
528.000	56503.000
529.000	57212.000
530.000	56690.000
531.000	55099.000
532.000	52402.000
533.000	49402.000
534.000	45739.000
535.000	42257.000
536.000	39181.000
537.000	36398.000
538.000	34029.000
539.000	31588.000
540.000	30294.000
541.000	28924.000
542.000	28249.000
543.000	27378.000
544.000	27247.000
545.000	27301.000
546.000	26981.000
547.000	27210.000
548.000	27388.000
549.000	27735.000
550.000	28015.000
551.000	28586.000
552.000	28621.000
553.000	29566.000
554.000	30018.000
555.000	30060.000
556.000	31521.000
557.000	32386.000
558.000	33146.000
559.000	34410.000
560.000	35744.000
561.000	38201.000
562.000	40931.000
563.000	44915.000
564.000	49720.000
565.000	55836.000
566.000	64010.000
567.000	73998.000
568.000	86072.000
569.000	99446.000
570.000	114200.000
571.000	130072.000
572.000	144540.000
573.000	158530.000
574.000	169738.000
575.000	177014.000
576.000	181169.000
577.000	179430.000
578.000	173562.000
579.000	164007.000
580.000	150482.000
581.000	137230.000
582.000	120937.000
583.000	105735.000
584.000	91555.000
585.000	78677.000
586.000	67356.000
587.000	59272.000
588.000	52180.000
589.000	47229.000
590.000	44007.000
591.000	41660.000
592.000	40028.000
593.000	39387.000
594.000	39291.000
595.000	39457.000
596.000	40251.000
597.000	40825.000
598.000	42006.000
599.000	43612.000
600.000	45341.000
601.000	47642.000
602.000	50622.000
603.000	55250.000
604.000	61664.000
605.000	70868.000
606.000	85866.000
607.000	108921.000
608.000	144644.000
609.000	198792.000
610.000	278629.000
611.000	394085.000
612.000	558972.000
613.000	783150.000
614.000	1082036.000
615.000	1465898.000
616.000	1937056.000
617.000	2499639.000
618.000	3138436.000
619.000	3837881.000
620.000	4550383.000
621.000	5248243.000
622.000	5877667.000
623.000	6395215.000
624.000	6743502.000
625.000	6911252.000
626.000	6876274.000
627.000	6636687.000
628.000	6206653.000
629.000	5643980.000
630.000	4988255.000
631.000	4279395.000
632.000	3560596.000
633.000	2888249.000
634.000	2276222.000
635.000	1746912.000
636.000	1311592.000
637.000	961208.000
638.000	692960.000
639.000	493872.000
640.000	351551.000
641.000	253006.000
642.000	185380.000
643.000	142017.000
644.000	112856.000
645.000	95968.000
646.000	84919.000
647.000	77451.000
648.000	73451.000
649.000	71338.000
650.000	69710.000
651.000	68964.000
652.000	68447.000
653.000	68426.000
654.000	68203.000
655.000	67974.000
656.000	68816.000
657.000	68811.000
658.000	70358.000
659.000	70981.000
660.000	71778.000
661.000	73032.000
662.000	74398.000
663.000	75810.000
664.000	78344.000
665.000	80686.000
666.000	82602.000
667.000	85408.000
668.000	89767.000
669.000	95118.000
670.000	101519.000
671.000	109796.000
672.000	119584.000
673.000	134323.000
674.000	151987.000
675.000	176674.000
676.000	210444.000
677.000	251684.000
678.000	306254.000
679.000	369777.000
680.000	446903.000
681.000	537794.000
682.000	634141.000
683.000	737641.000
684.000	843095.000
685.000	939389.000
686.000	1027278.000
687.000	1095633.000
688.000	1143737.000
689.000	1158080.000
690.000	1147499.000
691.000	1109228.000
692.000	1047515.000
693.000	960200.000
694.000	861611.000
695.000	756852.000
696.000	649754.000
697.000	544839.000
698.000	448604.000
699.000	367192.000
700.000	293701.000
701.000	235954.000
702.000	188447.000
703.000	152238.000
704.000	125988.000
705.000	107102.000
706.000	93162.000
707.000	83768.000
708.000	78448.000
709.000	74537.000
710.000	72941.000
711.000	71593.000
712.000	72130.000
713.000	72943.000
714.000	74760.000
715.000	77227.000
716.000	79983.000
717.000	82403.000
718.000	85445.000
719.000	88867.000
720.000	92198.000
721.000	94522.000
722.000	98047.000
723.000	101379.000
724.000	104213.000
725.000	106539.000
726.000	108524.000
727.000	110437.000
728.000	110885.000
729.000	111395.000
730.000	110802.000
731.000	109147.000
732.000	107320.000
733.000	104922.000
734.000	102697.000
735.000	99962.000
736.000	96656.000
737.000	92521.000
738.000	90955.000
739.000	88862.000
740.000	86602.000
741.000	85095.000
742.000	83893.000
743.000	82646.000
744.000	82893.000
745.000	82280.000
746.000	82245.000
747.000	82043.000
748.000	82684.000
749.000	83128.000
750.000	83357.000
751.000	83819.000
752.000	83942.000
753.000	84002.000
754.000	83270.000
755.000	83655.000
756.000	83812.000
757.000	83604.000
758.000	84205.000
759.000	83680.000
760.000	84215.000
761.000	84671.000
762.000	85330.000
763.000	85165.000
764.000	86430.000
765.000	87121.000
766.000	87496.000
767.000	88811.000
768.000	90216.000
769.000	91642.000
770.000	93617.000
771.000	95528.000
772.000	97055.000
773.000	99645.000
774.000	102758.000
775.000	106222.000
776.000	110295.000
777.000	114858.000
778.000	119086.000
779.000	124212.000
780.000	128415.000
781.000	134104.000
782.000	139146.000
783.000	143181.000
784.000	148694.000
785.000	152733.000
786.000	156346.000
787.000	160146.000
788.000	162103.000
789.000	165023.000
790.000	166622.000
791.000	167834.000
792.000	169325.000
793.000	169880.000
794.000	170595.000
795.000	170774.000
796.000	172520.000
797.000	172333.000
798.000	173486.000
799.000	172870.000
800.000	174665.000
801.000	174437.000
802.000	176181.000
803.000	178183.000
804.000	181186.000
805.000	185800.000
806.000	190447.000
807.000	196991.000
808.000	206629.000
809.000	216700.000
810.000	229136.000
811.000	243207.000
812.000	261124.000
813.000	279557.000
814.000	293573.000
815.000	309565.000
816.000	323481.000
817.000	334154.000
818.000	342213.000
819.000	347683.000
820.000	346600.000
821.000	341480.000
822.000	332833.000
823.000	317902.000
824.000	303265.000
825.000	284914.000
826.000	265260.000
827.000	246298.000
828.000	226927.000
829.000	210223.000
830.000	194902.000
831.000	183087.000
832.000	172626.000
833.000	165208.000
834.000	159608.000
835.000	156298.000
836.000	154707.000
837.000	154601.000
838.000	153500.000
839.000	155072.000
840.000	155543.000
841.000	156708.000
842.000	157419.000
843.000	158412.000
844.000	157818.000
845.000	157237.000
846.000	155736.000
847.000	154715.000
848.000	152836.000
849.000	150844.000
850.000	150220.000
851.000	147652.000
852.000	145020.000
853.000	143555.000
854.000	142220.000
855.000	141519.000
856.000	140115.000
857.000	139254.000
858.000	139000.000
859.000	139446.000
860.000	139613.000
861.000	138955.000
862.000	139677.000
863.000	138639.000
864.000	139741.000
865.000	139527.000
866.000	141050.000
867.000	140917.000
868.000	140771.000
869.000	141746.000
870.000	142203.000
871.000	141767.000
872.000	142032.000
873.000	141788.000
874.000	141924.000
875.000	141729.000
876.000	141510.000
877.000	141781.000
878.000	142138.000
879.000	141365.000
880.000	142056.000
881.000	142102.000
882.000	142919.000
883.000	142332.000
884.000	142451.000
885.000	143951.000
886.000	144688.000
887.000	145229.000
888.000	146969.000
889.000	147987.000
890.000	149241.000
891.000	150588.000
892.000	153089.000
893.000	155007.000
894.000	156662.000
895.000	158953.000
896.000	161695.000
897.000	164499.000
898.000	167175.000
899.000	169706.000
900.000	173267.000
901.000	175147.000
902.000	178912.000
903.000	180930.000
904.000	184309.000
905.000	187045.000
906.000	189067.000
907.000	191477.000
908.000	193087.000
909.000	196242.000
910.000	197807.000
911.000	199226.000
912.000	201108.000
913.000	203250.000
914.000	203869.000
915.000	205419.000
916.000	207013.000
917.000	208196.000
918.000	209865.000
919.000	211480.000
920.000	213234.000
921.000	214401.000
922.000	216705.000
923.000	218376.000
924.000	219686.000
925.000	221578.000
926.000	224794.000
927.000	226831.000
928.000	230565.000
929.000	234096.000
930.000	238149.000
931.000	242968.000
932.000	247567.000
933.000	252604.000
934.000	259342.000
935.000	266444.000
936.000	275111.000
937.000	282917.000
938.000	291156.000
939.000	298612.000
940.000	305144.000
941.000	310751.000
942.000	314561.000
943.000	316318.000
944.000	317765.000
945.000	314513.000
946.000	311551.000
947.000	304744.000
948.000	297925.000
949.000	289009.000
950.000	278686.000
951.000	269892.000
952.000	259302.000
953.000	251051.000
954.000	243334.000
955.000	235741.000
956.000	228895.000
957.000	224820.000
958.000	220577.000
959.000	216550.000
960.000	215558.000
961.000	215038.000
962.000	213661.000
963.000	214661.000
964.000	215728.000
965.000	217708.000
966.000	219131.000
967.000	220821.000
968.000	222423.000
969.000	224499.000
970.000	224876.000
971.000	225657.000
972.000	225610.000
973.000	224166.000
974.000	222957.000
975.000	220166.000
976.000	217413.000
977.000	214224.000
978.000	210750.000
979.000	206190.000
980.000	202446.000
981.000	198930.000
982.000	194716.000
983.000	191456.000
984.000	187619.000
985.000	186387.000
986.000	183756.000
987.000	180934.000
988.000	178958.000
989.000	178305.000
990.000	176421.000
991.000	174692.000
992.000	173513.000
993.000	172073.000
994.000	170750.000
995.000	170165.000
996.000	169005.000
997.000	168990.000
998.000	168098.000
999.000	166815.000
1000.000	166902.000
1001.000	166232.000
1002.000	165208.000
1003.000	165122.000
1004.000	165166.000
1005.000	164832.000
1006.000	164071.000
1007.000	164019.000
1008.000	163838.000
1009.000	164631.000
1010.000	165095.000
1011.000	164450.000
1012.000	165401.000
1013.000	165593.000
1014.000	165766.000
1015.000	165557.000
1016.000	167382.000
1017.000	167832.000
1018.000	168761.000
1019.000	169236.000
1020.000	170168.000
1021.000	170265.000
1022.000	171175.000
1023.000	170939.000
1024.000	172551.000
1025.000	172899.000
1026.000	173601.000
1027.000	174209.000
1028.000	175010.000
1029.000	176020.000
1030.000	176119.000
1031.000	175709.000
1032.000	175887.000
1033.000	176230.000
1034.000	177047.000
1035.000	177107.000
1036.000	177650.000
1037.000	177401.000
1038.000	177854.000
1039.000	177816.000
1040.000	178530.000
1041.000	178326.000
1042.000	180138.000
1043.000	180648.000
1044.000	180787.000
1045.000	181364.000
1046.000	183025.000
1047.000	184158.000
1048.000	183791.000
1049.000	185024.000
1050.000	187269.000
1051.000	187635.000
1052.000	187270.000
1053.000	188664.000
1054.000	189706.000
1055.000	190154.000
1056.000	190359.000
1057.000	191224.000
1058.000	192748.000
1059.000	193446.000
1060.000	193785.000
1061.000	193840.000
1062.000	195068.000
1063.000	194300.000
1064.000	195547.000
1065.000	195619.000
1066.000	195739.000
1067.000	196220.000
1068.000	195416.000
1069.000	196552.000
1070.000	195549.000
1071.000	195241.000
1072.000	195569.000
1073.000	194296.000
1074.000	194721.000
1075.000	194450.000
1076.000	194166.000
1077.000	194133.000
1078.000	193484.000
1079.000	194099.000
1080.000	193007.000
1081.000	193291.000
1082.000	193728.000
1083.000	193589.000
1084.000	195153.000
1085.000	195263.000
1086.000	195602.000
1087.000	195683.000
1088.000	196265.000
1089.000	197172.000
1090.000	198980.000
1091.000	199456.000
1092.000	201272.000
1093.000	203676.000
1094.000	205534.000
1095.000	206426.000
1096.000	208453.000
1097.000	210083.000
1098.000	210488.000
1099.000	211729.000
1100.000	211905.000
1101.000	213743.000
1102.000	212843.000
1103.000	212068.000
1104.000	211607.000
1105.000	209799.000
1106.000	208948.000
1107.000	206966.000
1108.000	205876.000
1109.000	204743.000
1110.000	203620.000
1111.000	201844.000
1112.000	200255.000
1113.000	199167.000
1114.000	197630.000
1115.000	197296.000
1116.000	196731.000
1117.000	197107.000
1118.000	196371.000
1119.000	195888.000
1120.000	196501.000
1121.000	196011.000
1122.000	196438.000
1123.000	196480.000
1124.000	196805.000
1125.000	197153.000
1126.000	198059.000
1127.000	198818.000
1128.000	198588.000
1129.000	198501.000
1130.000	199624.000
1131.000	200235.000
1132.000	200913.000
1133.000	200731.000
1134.000	200852.000
1135.000	201673.000
1136.000	202018.000
1137.000	201200.000
1138.000	201828.000
1139.000	202063.000
1140.000	202386.000
1141.000	202379.000
1142.000	202392.000
1143.000	202887.000
1144.000	203411.000
1145.000	204065.000
1146.000	203703.000
1147.000	204623.000
1148.000	206663.000
1149.000	207313.000
1150.000	210404.000
1151.000	211768.000
1152.000	212829.000
1153.000	216414.000
1154.000	219254.000
1155.000	220703.000
1156.000	224155.000
1157.000	226326.000
1158.000	227502.000
1159.000	230444.000
1160.000	232212.000
1161.000	231435.000
1162.000	232763.000
1163.000	232810.000
1164.000	231988.000
1165.000	229787.000
1166.000	228648.000
1167.000	227327.000
1168.000	225044.000
1169.000	222279.000
1170.000	219463.000
1171.000	217572.000
1172.000	214142.000
1173.000	211643.000
1174.000	209133.000
1175.000	207354.000
1176.000	204877.000
1177.000	203199.000
1178.000	202331.000
1179.000	201621.000
1180.000	201154.000
1181.000	200239.000
1182.000	199040.000
1183.000	198892.000
1184.000	197863.000
1185.000	197507.000
1186.000	197615.000
1187.000	196947.000
1188.000	197955.000
1189.000	197863.000
1190.000	197983.000
1191.000	196865.000
1192.000	197914.000
1193.000	198012.000
1194.000	198519.000
1195.000	198158.000
1196.000	198049.000
1197.000	197870.000
1198.000	199576.000
1199.000	199122.000
1200.000	199260.000
1201.000	200180.000
1202.000	200786.000
1203.000	199924.000
1204.000	200167.000
1205.000	200700.000
1206.000	201977.000
1207.000	201942.000
1208.000	201676.000
1209.000	202656.000
1210.000	202699.000
1211.000	204146.000
1212.000	203498.000
1213.000	203603.000
1214.000	204811.000
1215.000	203804.000
1216.000	205776.000
1217.000	206551.000
1218.000	206417.000
1219.000	206403.000
1220.000	206797.000
1221.000	206762.000
1222.000	206834.000
1223.000	207721.000
1224.000	207511.000
1225.000	208443.000
1226.000	209002.000
1227.000	209132.000
1228.000	209823.000
1229.000	209509.000
1230.000	210117.000
1231.000	210003.000
1232.000	210539.000
1233.000	210627.000
1234.000	210733.000
1235.000	210474.000
1236.000	211065.000
1237.000	211497.000
1238.000	211552.000
1239.000	211524.000
1240.000	211423.000
1241.000	211781.000
1242.000	210809.000
1243.000	211343.000
1244.000	211188.000
1245.000	210060.000
1246.000	211085.000
1247.000	212152.000
1248.000	211792.000
1249.000	211564.000
1250.000	211770.000
1251.000	210954.000
1252.000	212118.000
1253.000	210715.000
1254.000	211119.000
1255.000	211067.000
1256.000	211826.000
1257.000	210415.000
1258.000	210372.000
1259.000	210866.000
1260.000	210473.000
1261.000	209820.000
1262.000	210074.000
1263.000	210485.000
1264.000	210121.000
1265.000	209397.000
1266.000	209818.000
1267.000	209819.000
1268.000	210124.000
1269.000	209411.000
1270.000	209868.000
1271.000	209207.000
1272.000	208851.000
1273.000	207971.000
1274.000	208932.000
1275.000	209602.000
1276.000	209450.000
1277.000	209441.000
1278.000	208589.000
1279.000	209636.000
1280.000	209754.000
1281.000	210071.000
1282.000	210702.000
1283.000	210429.000
1284.000	211617.000
1285.000	211923.000
1286.000	213580.000
1287.000	214962.000
1288.000	215480.000
1289.000	217617.000
1290.000	219051.000
1291.000	221014.000
1292.000	222587.000
1293.000	225325.000
1294.000	226693.000
1295.000	228607.000
1296.000	231114.000
1297.000	233120.000
1298.000	235151.000
1299.000	237406.000
1300.000	237496.000
1301.000	239333.000
1302.000	240500.000
1303.000	240151.000
1304.000	241180.000
1305.000	240664.000
1306.000	241600.000
1307.000	239942.000
1308.000	238933.000
1309.000	237356.000
1310.000	236229.000
1311.000	235536.000
1312.000	232497.000
1313.000	231516.000
1314.000	229594.000
1315.000	227732.000
1316.000	226136.000
1317.000	225462.000
1318.000	223193.000
1319.000	221826.000
1320.000	220467.000
1321.000	220447.000
1322.000	219393.000
1323.000	218574.000
1324.000	218445.000
1325.000	217342.000
1326.000	217596.000
1327.000	217300.000
1328.000	216762.000
1329.000	217203.000
1330.000	217176.000
1331.000	216602.000
1332.000	216888.000
1333.000	216986.000
1334.000	218104.000
1335.000	215756.000
1336.000	217233.000
1337.000	218065.000
1338.000	217767.000
1339.000	218283.000
1340.000	218295.000
1341.000	219852.000
1342.000	218735.000
1343.000	219064.000
1344.000	219481.000
1345.000	219875.000
1346.000	220155.000
1347.000	220836.000
1348.000	221331.000
1349.000	222221.000
1350.000	223999.000
1351.000	224161.000
1352.000	227645.000
1353.000	229771.000
1354.000	234052.000
1355.000	239363.000
1356.000	245786.000
1357.000	253274.000
1358.000	263192.000
1359.000	276493.000
1360.000	291422.000
1361.000	312009.000
1362.000	333602.000
1363.000	360858.000
1364.000	392005.000
1365.000	427085.000
1366.000	466754.000
1367.000	510878.000
1368.000	560001.000
1369.000	609976.000
1370.000	662561.000
1371.000	716001.000
1372.000	773414.000
1373.000	825071.000
1374.000	872847.000
1375.000	918170.000
1376.000	956537.000
1377.000	988483.000
1378.000	1009754.000
1379.000	1022628.000
1380.000	1026817.000
1381.000	1016121.000
1382.000	998383.000
1383.000	970822.000
1384.000	934163.000
1385.000	892254.000
1386.000	840410.000
1387.000	786867.000
1388.000	731447.000
1389.000	675016.000
1390.000	619774.000
1391.000	566439.000
1392.000	513509.000
1393.000	466828.000
1394.000	424466.000
1395.000	388811.000
1396.000	353733.000
1397.000	326521.000
1398.000	303509.000
1399.000	284258.000
1400.000	266959.000
1401.000	253644.000
1402.000	243921.000
1403.000	237234.000
1404.000	230729.000
1405.000	226736.000
1406.000	223001.000
1407.000	220982.000
1408.000	218128.000
1409.000	216918.000
1410.000	215184.000
1411.000	216119.000
1412.000	214985.000
1413.000	215593.000
1414.000	214955.000
1415.000	214107.000
1416.000	214842.000
1417.000	213904.000
1418.000	215922.000
1419.000	214084.000
1420.000	215568.000
1421.000	214284.000
1422.000	214886.000
1423.000	214529.000
1424.000	215089.000
1425.000	215420.000
1426.000	214694.000
1427.000	214658.000
1428.000	214648.000
1429.000	214621.000
1430.000	215449.000
1431.000	214564.000
1432.000	215558.000
1433.000	215939.000
1434.000	216642.000
1435.000	217121.000
1436.000	216263.000
1437.000	217416.000
1438.000	218002.000
1439.000	218608.000
1440.000	218186.000
1441.000	219386.000
1442.000	220288.000
1443.000	221194.000
1444.000	220952.000
1445.000	223664.000
1446.000	223418.000
1447.000	224876.000
1448.000	227048.000
1449.000	227798.000
1450.000	228368.000
1451.000	229360.000
1452.000	230994.000
1453.000	231266.000
1454.000	232269.000
1455.000	233587.000
1456.000	232817.000
1457.000	234198.000
1458.000	234771.000
1459.000	234981.000
1460.000	234672.000
1461.000	233468.000
1462.000	233121.000
1463.000	232613.000
1464.000	231652.000
1465.000	232133.000
1466.000	229413.000
1467.000	228568.000
1468.000	228536.000
1469.000	227271.000
1470.000	226384.000
1471.000	226603.000
1472.000	224421.000
1473.000	225108.000
1474.000	223696.000
1475.000	223618.000
1476.000	222888.000
1477.000	223366.000
1478.000	223424.000
1479.000	224155.000
1480.000	223194.000
1481.000	224142.000
1482.000	222665.000
1483.000	222954.000
1484.000	222725.000
1485.000	223075.000
1486.000	223834.000
1487.000	224279.000
1488.000	223919.000
1489.000	223987.000
1490.000	224391.000
1491.000	224479.000
1492.000	225926.000
1493.000	224703.000
1494.000	224897.000
1495.000	225496.000
1496.000	226334.000
1497.000	225931.000
1498.000	226636.000
1499.000	228835.000
1500.000	226772.000
1501.000	227576.000
1502.000	229046.000
1503.000	228109.000
1504.000	228518.000
1505.000	230302.000
1506.000	229172.000
1507.000	231678.000
1508.000	230921.000
1509.000	231966.000
1510.000	233367.000
1511.000	232970.000
1512.000	234653.000
1513.000	235495.000
1514.000	237453.000
1515.000	239359.000
1516.000	240447.000
1517.000	242208.000
1518.000	243864.000
1519.000	246265.000
1520.000	249450.000
1521.000	252615.000
1522.000	257189.000
1523.000	260173.000
1524.000	265302.000
1525.000	269790.000
1526.000	275835.000
1527.000	282339.000
1528.000	290013.000
1529.000	297709.000
1530.000	306715.000
1531.000	317334.000
1532.000	326083.000
1533.000	336200.000
1534.000	347478.000
1535.000	358097.000
1536.000	368965.000
1537.000	377437.000
1538.000	387670.000
1539.000	396089.000
1540.000	403332.000
1541.000	410306.000
1542.000	414127.000
1543.000	416126.000
1544.000	418003.000
1545.000	415851.000
1546.000	415098.000
1547.000	409553.000
1548.000	405484.000
1549.000	398666.000
1550.000	390710.000
1551.000	383042.000
1552.000	375850.000
1553.000	367324.000
1554.000	361036.000
1555.000	353485.000
1556.000	348903.000
1557.000	345696.000
1558.000	342002.000
1559.000	338800.000
1560.000	337912.000
1561.000	339426.000
1562.000	340314.000
1563.000	342328.000
1564.000	346170.000
1565.000	350059.000
1566.000	354085.000
1567.000	359858.000
1568.000	364696.000
1569.000	371759.000
1570.000	379480.000
1571.000	384678.000
1572.000	393475.000
1573.000	403070.000
1574.000	410354.000
1575.000	421311.000
1576.000	430286.000
1577.000	438773.000
1578.000	450272.000
1579.000	461131.000
1580.000	473492.000
1581.000	485646.000
1582.000	497912.000
1583.000	511005.000
1584.000	525096.000
1585.000	537654.000
1586.000	552608.000
1587.000	564832.000
1588.000	582232.000
1589.000	595536.000
1590.000	612217.000
1591.000	626430.000
1592.000	641935.000
1593.000	655315.000
1594.000	669124.000
1595.000	681491.000
1596.000	696140.000
1597.000	706893.000
1598.000	718482.000
1599.000	729584.000
1600.000	740370.000
1601.000	750242.000
1602.000	756387.000
1603.000	761396.000
1604.000	769242.000
1605.000	772536.000
1606.000	775571.000
1607.000	780629.000
1608.000	779832.000
1609.000	780718.000
1610.000	778692.000
1611.000	777427.000
1612.000	772680.000
1613.000	766332.000
1614.000	761610.000
1615.000	753448.000
1616.000	745848.000
1617.000	736792.000
1618.000	726046.000
1619.000	717586.000
1620.000	703692.000
1621.000	691846.000
1622.000	679835.000
1623.000	666786.000
1624.000	651237.000
1625.000	637298.000
1626.000	622805.000
1627.000	610532.000
1628.000	593170.000
1629.000	578104.000
1630.000	563678.000
1631.000	547432.000
1632.000	533377.000
1633.000	518766.000
1634.000	502908.000
1635.000	488328.000
1636.000	474460.000
1637.000	460292.000
1638.000	447791.000
1639.000	435774.000
1640.000	422728.000
1641.000	411322.000
1642.000	398221.000
1643.000	387186.000
1644.000	376401.000
1645.000	366605.000
1646.000	356812.000
1647.000	346777.000
1648.000	337209.000
1649.000	329742.000
1650.000	321777.000
1651.000	314130.000
1652.000	305458.000
1653.000	299036.000
1654.000	292077.000
1655.000	286213.000
1656.000	280782.000
1657.000	274790.000
1658.000	269151.000
1659.000	264543.000
1660.000	260314.000
1661.000	256269.000
1662.000	252493.000
1663.000	248161.000
1664.000	245696.000
1665.000	242200.000
1666.000	239712.000
1667.000	236453.000
1668.000	235375.000
1669.000	234336.000
1670.000	232654.000
1671.000	232599.000
1672.000	231971.000
1673.000	233601.000
1674.000	234908.000
1675.000	238162.000
1676.000	242513.000
1677.000	247674.000
1678.000	254580.000
1679.000	262146.000
1680.000	273352.000
1681.000	284562.000
1682.000	298276.000
1683.000	315458.000
1684.000	332785.000
1685.000	352557.000
1686.000	373310.000
1687.000	397012.000
1688.000	422439.000
1689.000	447719.000
1690.000	473586.000
1691.000	500210.000
1692.000	527221.000
1693.000	552340.000
1694.000	578206.000
1695.000	601636.000
1696.000	623707.000
1697.000	642898.000
1698.000	658594.000
1699.000	673730.000
1700.000	681846.000
1701.000	685444.000
1702.000	687491.000
1703.000	682358.000
1704.000	675043.000
1705.000	660654.000
1706.000	641532.000
1707.000	622662.000
1708.000	598678.000
1709.000	572331.000
1710.000	543580.000
1711.000	511799.000
1712.000	481965.000
1713.000	451344.000
1714.000	421086.000
1715.000	391796.000
1716.000	365277.000
1717.000	338596.000
1718.000	315399.000
1719.000	294813.000
1720.000	274980.000
1721.000	258193.000
1722.000	243880.000
1723.000	232809.000
1724.000	220734.000
1725.000	212128.000
1726.000	205823.000
1727.000	200616.000
1728.000	195044.000
1729.000	191910.000
1730.000	189494.000
1731.000	186640.000
1732.000	184572.000
1733.000	183110.000
1734.000	183354.000
1735.000	182268.000
1736.000	180570.000
1737.000	181321.000
1738.000	180607.000
1739.000	180846.000
1740.000	180165.000
1741.000	180661.000
1742.000	181126.000
1743.000	180467.000
1744.000	181287.000
1745.000	181765.000
1746.000	182627.000
1747.000	182498.000
1748.000	183130.000
1749.000	184212.000
1750.000	185367.000
1751.000	186260.000
1752.000	186278.000
1753.000	187923.000
1754.000	188455.000
1755.000	188923.000
1756.000	190709.000
1757.000	191828.000
1758.000	192521.000
1759.000	194240.000
1760.000	196575.000
1761.000	198147.000
1762.000	199243.000
1763.000	200969.000
1764.000	202328.000
1765.000	204575.000
1766.000	206945.000
1767.000	207268.000
1768.000	211433.000
1769.000	212471.000
1770.000	214369.000
1771.000	216780.000
1772.000	219532.000
1773.000	222156.000
1774.000	223284.000
1775.000	225579.000
1776.000	228608.000
1777.000	229773.000
1778.000	231282.000
1779.000	234610.000
1780.000	235521.000
1781.000	238171.000
1782.000	239035.000
1783.000	241278.000
1784.000	242923.000
1785.000	244012.000
1786.000	244872.000
1787.000	246394.000
1788.000	247139.000
1789.000	248318.000
1790.000	248426.000
1791.000	250542.000
1792.000	249401.000
1793.000	249578.000
1794.000	249520.000
1795.000	249332.000
1796.000	248434.000
1797.000	248780.000
1798.000	247599.000
1799.000	245899.000
1800.000	245645.000
1801.000	244498.000
1802.000	243700.000
1803.000	241296.000
1804.000	240570.000
1805.000	238829.000
1806.000	236203.000
1807.000	233985.000
1808.000	232469.000
1809.000	230038.000
1810.000	227342.000
1811.000	224388.000
1812.000	222445.000
1813.000	218911.000
1814.000	216299.000
1815.000	213206.000
1816.000	210257.000
1817.000	207744.000
1818.000	204598.000
1819.000	201654.000
1820.000	198706.000
1821.000	195054.000
1822.000	192451.000
1823.000	189319.000
1824.000	186785.000
1825.000	183595.000
1826.000	181358.000
1827.000	178554.000
1828.000	175612.000
1829.000	171434.000
1830.000	168928.000
1831.000	166796.000
1832.000	164370.000
1833.000	161347.000
1834.000	158862.000
1835.000	156220.000
1836.000	153850.000
1837.000	151406.000
1838.000	149157.000
1839.000	147612.000
1840.000	144731.000
1841.000	143004.000
1842.000	141179.000
1843.000	138762.000
1844.000	137101.000
1845.000	134563.000
1846.000	133444.000
1847.000	131066.000
1848.000	130033.000
1849.000	128241.000
1850.000	126156.000
1851.000	124168.000
1852.000	123301.000
1853.000	121857.000
1854.000	120030.000
1855.000	119075.000
1856.000	117184.000
1857.000	116417.000
1858.000	115044.000
1859.000	113748.000
1860.000	111859.000
1861.000	111642.000
1862.000	110060.000
1863.000	108811.000
1864.000	108263.000
1865.000	106561.000
1866.000	106569.000
1867.000	104498.000
1868.000	103845.000
1869.000	103663.000
1870.000	102554.000
1871.000	101750.000
1872.000	100784.000
1873.000	100299.000
1874.000	99596.000
1875.000	99212.000
1876.000	98282.000
1877.000	98005.000
1878.000	97521.000
1879.000	96739.000
1880.000	96517.000
1881.000	96300.000
1882.000	96197.000
1883.000	95770.000
1884.000	95339.000
1885.000	95587.000
1886.000	95706.000
1887.000	95816.000
1888.000	96294.000
1889.000	97332.000
1890.000	97780.000
1891.000	98723.000
1892.000	99750.000
1893.000	102309.000
1894.000	103957.000
1895.000	105616.000
1896.000	108893.000
1897.000	112215.000
1898.000	115030.000
1899.000	119001.000
1900.000	122745.000
1901.000	126918.000
1902.000	131279.000
1903.000	135082.000
1904.000	138708.000
1905.000	143266.000
1906.000	145815.000
1907.000	149007.000
1908.000	152732.000
1909.000	153867.000
1910.000	155424.000
1911.000	155701.000
1912.000	155426.000
1913.000	153917.000
1914.000	152897.000
1915.000	149350.000
1916.000	146476.000
1917.000	143074.000
1918.000	138700.000
1919.000	134193.000
1920.000	130128.000
1921.000	126008.000
1922.000	120467.000
1923.000	116636.000
1924.000	112573.000
1925.000	107700.000
1926.000	104415.000
1927.000	101028.000
1928.000	98318.000
1929.000	95203.000
1930.000	94256.000
1931.000	91719.000
1932.000	90457.000
1933.000	89097.000
1934.000	88559.000
1935.000	87176.000
1936.000	86917.000
1937.000	86934.000
1938.000	86835.000
1939.000	87208.000
1940.000	86813.000
1941.000	86656.000
1942.000	86556.000
1943.000	86886.000
1944.000	85917.000
1945.000	85928.000
1946.000	85177.000
1947.000	84817.000
1948.000	84581.000
1949.000	83562.000
1950.000	82791.000
1951.000	81331.000
1952.000	80286.000
1953.000	79404.000
1954.000	78357.000
1955.000	78016.000
1956.000	76125.000
1957.000	75389.000
1958.000	74551.000
1959.000	73628.000
1960.000	72465.000
1961.000	71316.000
1962.000	70832.000
1963.000	70087.000
1964.000	69675.000
1965.000	68822.000
1966.000	68249.000
1967.000	67590.000
1968.000	67451.000
1969.000	67399.000
1970.000	66844.000
1971.000	66936.000
1972.000	66768.000
1973.000	66225.000
1974.000	66439.000
1975.000	66275.000
1976.000	66377.000
1977.000	65748.000
1978.000	65725.000
1979.000	65585.000
1980.000	65749.000
1981.000	65422.000
1982.000	65684.000
1983.000	65493.000
1984.000	65155.000
1985.000	65345.000
1986.000	64842.000
1987.000	64858.000
1988.000	65004.000
1989.000	65017.000
1990.000	64861.000
1991.000	64532.000
1992.000	64029.000
1993.000	65006.000
1994.000	64314.000
1995.000	64676.000
1996.000	64537.000
1997.000	63999.000
1998.000	64070.000
1999.000	64101.000
2000.000	63385.000
2001.000	63697.000
2002.000	63632.000
2003.000	63711.000
2004.000	63440.000
2005.000	63512.000
2006.000	63758.000
2007.000	63162.000
2008.000	63120.000
2009.000	63290.000
2010.000	63260.000
2011.000	62575.000
2012.000	62942.000
2013.000	62937.000
2014.000	62626.000
2015.000	62527.000
2016.000	62049.000
2017.000	62812.000
2018.000	62011.000
2019.000	61985.000
2020.000	61972.000
2021.000	62188.000
2022.000	61877.000
2023.000	61214.000
2024.000	61519.000
2025.000	61143.000
2026.000	61187.000
2027.000	61388.000
2028.000	61400.000
2029.000	60673.000
2030.000	61065.000
2031.000	60672.000
2032.000	60863.000
2033.000	60254.000
2034.000	60168.000
2035.000	60688.000
2036.000	60489.000
2037.000	60274.000
2038.000	60604.000
2039.000	60274.000
2040.000	59723.000
2041.000	59764.000
2042.000	59825.000
2043.000	59452.000
2044.000	60169.000
2045.000	59080.000
2046.000	59829.000
2047.000	60085.000
2048.000	0.000
