Date:	18-Sep-20		Time:	12:29 AM		Version no:	0.00		Project name:	55		Sample name:	222		Section name:	section		Position	0.000000	mm	E0	0.000000	keV	E1	1.000000	keV/channel	sample surface	2.000000	cm	Tube anode:	Mo		Tube voltage:	30	kV	Tube current:	30	mA	gain	15		std. database			resultfile	result		matrix element	11		sample thickness	1.000000		air passage	0.560000	cm	comments	not in position		peaking_time	0.300000	m-sec	trigger_threshold	40.000000	V	mca_bin_width	2.000000	no:	number_mca_channels	2048.000000	no:	gap_time	2048.000000	m-sec	trigger_peaking_time	2048.000000	m-sec	GAINDAC	400		HIGHGAIN	400		TAURC	400		RCTAU	400		RCTAUFRAC	400		livetime	13.376993	seconds	runtime	15.000272	seconds	input_count_rate	47297.250320	cps	output_count_rate	42178.900417	cps	triggers	697290	seconds	events_in_run	616219	seconds	channel	content		1.000	0.000
2.000	0.000
3.000	0.000
4.000	0.000
5.000	0.000
6.000	0.000
7.000	0.000
8.000	0.000
9.000	0.000
10.000	0.000
11.000	0.000
12.000	0.000
13.000	0.000
14.000	0.000
15.000	0.000
16.000	0.000
17.000	0.000
18.000	0.000
19.000	0.000
20.000	0.000
21.000	0.000
22.000	0.000
23.000	0.000
24.000	0.000
25.000	0.000
26.000	0.000
27.000	0.000
28.000	0.000
29.000	0.000
30.000	0.000
31.000	43.000
32.000	40.000
33.000	34.000
34.000	36.000
35.000	36.000
36.000	32.000
37.000	36.000
38.000	32.000
39.000	34.000
40.000	39.000
41.000	39.000
42.000	30.000
43.000	35.000
44.000	46.000
45.000	49.000
46.000	43.000
47.000	67.000
48.000	60.000
49.000	99.000
50.000	132.000
51.000	221.000
52.000	257.000
53.000	428.000
54.000	567.000
55.000	722.000
56.000	966.000
57.000	1411.000
58.000	1959.000
59.000	2654.000
60.000	3544.000
61.000	4030.000
62.000	4462.000
63.000	4746.000
64.000	4601.000
65.000	4531.000
66.000	4302.000
67.000	4152.000
68.000	4109.000
69.000	3968.000
70.000	3859.000
71.000	3816.000
72.000	3823.000
73.000	3792.000
74.000	3780.000
75.000	3725.000
76.000	3717.000
77.000	3719.000
78.000	3630.000
79.000	3651.000
80.000	3687.000
81.000	3624.000
82.000	3619.000
83.000	3700.000
84.000	3679.000
85.000	3783.000
86.000	3734.000
87.000	3646.000
88.000	3538.000
89.000	3594.000
90.000	3409.000
91.000	3424.000
92.000	3331.000
93.000	3349.000
94.000	3347.000
95.000	3300.000
96.000	3302.000
97.000	3232.000
98.000	3179.000
99.000	3201.000
100.000	3181.000
101.000	3125.000
102.000	2908.000
103.000	3026.000
104.000	3061.000
105.000	2898.000
106.000	2992.000
107.000	2958.000
108.000	2882.000
109.000	2862.000
110.000	2805.000
111.000	2788.000
112.000	2727.000
113.000	2730.000
114.000	2694.000
115.000	2721.000
116.000	2597.000
117.000	2662.000
118.000	2586.000
119.000	2562.000
120.000	2537.000
121.000	2542.000
122.000	2494.000
123.000	2406.000
124.000	2378.000
125.000	2464.000
126.000	2352.000
127.000	2249.000
128.000	2276.000
129.000	2265.000
130.000	2209.000
131.000	2151.000
132.000	2202.000
133.000	2198.000
134.000	2177.000
135.000	2127.000
136.000	2078.000
137.000	2194.000
138.000	2261.000
139.000	2607.000
140.000	2821.000
141.000	3093.000
142.000	3639.000
143.000	4073.000
144.000	4554.000
145.000	4840.000
146.000	4927.000
147.000	4883.000
148.000	4638.000
149.000	4542.000
150.000	4244.000
151.000	4132.000
152.000	4002.000
153.000	3953.000
154.000	3844.000
155.000	3663.000
156.000	3437.000
157.000	3132.000
158.000	2840.000
159.000	2548.000
160.000	2463.000
161.000	2520.000
162.000	3013.000
163.000	4074.000
164.000	5554.000
165.000	7814.000
166.000	10937.000
167.000	14397.000
168.000	17766.000
169.000	20830.000
170.000	22445.000
171.000	22821.000
172.000	21450.000
173.000	19140.000
174.000	15735.000
175.000	12648.000
176.000	9876.000
177.000	7411.000
178.000	5782.000
179.000	4728.000
180.000	4117.000
181.000	3888.000
182.000	3711.000
183.000	3767.000
184.000	4059.000
185.000	4574.000
186.000	5326.000
187.000	6290.000
188.000	7143.000
189.000	8025.000
190.000	8797.000
191.000	9050.000
192.000	8684.000
193.000	8032.000
194.000	6910.000
195.000	5933.000
196.000	4734.000
197.000	3937.000
198.000	3154.000
199.000	2552.000
200.000	2278.000
201.000	2021.000
202.000	1868.000
203.000	1736.000
204.000	1724.000
205.000	1688.000
206.000	1651.000
207.000	1626.000
208.000	1624.000
209.000	1583.000
210.000	1595.000
211.000	1658.000
212.000	1664.000
213.000	1665.000
214.000	1725.000
215.000	1704.000
216.000	1807.000
217.000	1946.000
218.000	2060.000
219.000	2275.000
220.000	2405.000
221.000	2529.000
222.000	2536.000
223.000	2704.000
224.000	2604.000
225.000	2532.000
226.000	2587.000
227.000	2360.000
228.000	2163.000
229.000	1926.000
230.000	1808.000
231.000	1699.000
232.000	1551.000
233.000	1470.000
234.000	1371.000
235.000	1393.000
236.000	1360.000
237.000	1377.000
238.000	1406.000
239.000	1260.000
240.000	1306.000
241.000	1335.000
242.000	1350.000
243.000	1338.000
244.000	1470.000
245.000	1530.000
246.000	1675.000
247.000	1902.000
248.000	2385.000
249.000	2906.000
250.000	3842.000
251.000	5202.000
252.000	6515.000
253.000	8109.000
254.000	9738.000
255.000	11037.000
256.000	12069.000
257.000	12512.000
258.000	12071.000
259.000	11415.000
260.000	9968.000
261.000	8373.000
262.000	6798.000
263.000	5325.000
264.000	4348.000
265.000	3534.000
266.000	2992.000
267.000	2661.000
268.000	2596.000
269.000	2675.000
270.000	2834.000
271.000	2903.000
272.000	3082.000
273.000	3108.000
274.000	3138.000
275.000	3187.000
276.000	3060.000
277.000	2941.000
278.000	2794.000
279.000	2647.000
280.000	2800.000
281.000	3034.000
282.000	3550.000
283.000	4114.000
284.000	4979.000
285.000	5729.000
286.000	7051.000
287.000	7933.000
288.000	8889.000
289.000	9359.000
290.000	9699.000
291.000	9360.000
292.000	8564.000
293.000	7558.000
294.000	6368.000
295.000	5400.000
296.000	4240.000
297.000	3455.000
298.000	2620.000
299.000	2196.000
300.000	1937.000
301.000	1772.000
302.000	1772.000
303.000	1663.000
304.000	1825.000
305.000	1806.000
306.000	2105.000
307.000	2365.000
308.000	2643.000
309.000	2969.000
310.000	3602.000
311.000	4480.000
312.000	5770.000
313.000	8031.000
314.000	11188.000
315.000	16489.000
316.000	23789.000
317.000	33744.000
318.000	46711.000
319.000	61865.000
320.000	78814.000
321.000	96614.000
322.000	113077.000
323.000	126465.000
324.000	132430.000
325.000	133135.000
326.000	127189.000
327.000	115266.000
328.000	99628.000
329.000	81531.000
330.000	63953.000
331.000	47843.000
332.000	34314.000
333.000	23571.000
334.000	15696.000
335.000	10473.000
336.000	6904.000
337.000	5111.000
338.000	4028.000
339.000	3559.000
340.000	3868.000
341.000	4529.000
342.000	5627.000
343.000	7125.000
344.000	9224.000
345.000	12223.000
346.000	15993.000
347.000	21582.000
348.000	28950.000
349.000	39307.000
350.000	54312.000
351.000	75360.000
352.000	104459.000
353.000	144548.000
354.000	196604.000
355.000	259997.000
356.000	333877.000
357.000	412311.000
358.000	489632.000
359.000	558137.000
360.000	606043.000
361.000	628904.000
362.000	628433.000
363.000	591261.000
364.000	535756.000
365.000	462318.000
366.000	380078.000
367.000	299246.000
368.000	225588.000
369.000	161582.000
370.000	110913.000
371.000	73603.000
372.000	47031.000
373.000	29229.000
374.000	18029.000
375.000	11753.000
376.000	8227.000
377.000	6376.000
378.000	5909.000
379.000	6323.000
380.000	7333.000
381.000	9255.000
382.000	12179.000
383.000	15972.000
384.000	21804.000
385.000	28795.000
386.000	37701.000
387.000	47564.000
388.000	58799.000
389.000	69289.000
390.000	79718.000
391.000	87245.000
392.000	92867.000
393.000	94212.000
394.000	91083.000
395.000	84659.000
396.000	75209.000
397.000	64686.000
398.000	52881.000
399.000	42001.000
400.000	31621.000
401.000	23163.000
402.000	16392.000
403.000	11481.000
404.000	7834.000
405.000	5433.000
406.000	3691.000
407.000	2741.000
408.000	2137.000
409.000	1778.000
410.000	1560.000
411.000	1403.000
412.000	1319.000
413.000	1366.000
414.000	1312.000
415.000	1327.000
416.000	1321.000
417.000	1367.000
418.000	1328.000
419.000	1465.000
420.000	1492.000
421.000	1552.000
422.000	1711.000
423.000	1840.000
424.000	2021.000
425.000	2612.000
426.000	3291.000
427.000	4438.000
428.000	6172.000
429.000	8821.000
430.000	12740.000
431.000	18366.000
432.000	25658.000
433.000	34993.000
434.000	46749.000
435.000	59690.000
436.000	73933.000
437.000	88351.000
438.000	101375.000
439.000	111861.000
440.000	119324.000
441.000	121713.000
442.000	119412.000
443.000	113376.000
444.000	102244.000
445.000	90607.000
446.000	76011.000
447.000	62525.000
448.000	49693.000
449.000	39055.000
450.000	30367.000
451.000	23899.000
452.000	18871.000
453.000	15697.000
454.000	13620.000
455.000	12199.000
456.000	10918.000
457.000	9883.000
458.000	8923.000
459.000	7974.000
460.000	7003.000
461.000	6417.000
462.000	5593.000
463.000	5035.000
464.000	4713.000
465.000	4457.000
466.000	4751.000
467.000	5038.000
468.000	5391.000
469.000	5952.000
470.000	6812.000
471.000	7589.000
472.000	8596.000
473.000	9849.000
474.000	11508.000
475.000	13176.000
476.000	14852.000
477.000	16834.000
478.000	18990.000
479.000	20616.000
480.000	22518.000
481.000	23549.000
482.000	24154.000
483.000	23642.000
484.000	22976.000
485.000	21699.000
486.000	19708.000
487.000	17265.000
488.000	15147.000
489.000	12666.000
490.000	10626.000
491.000	8926.000
492.000	7531.000
493.000	6280.000
494.000	5508.000
495.000	4714.000
496.000	4287.000
497.000	4070.000
498.000	3915.000
499.000	3805.000
500.000	3863.000
501.000	3934.000
502.000	3928.000
503.000	4168.000
504.000	4225.000
505.000	4420.000
506.000	4619.000
507.000	4799.000
508.000	5018.000
509.000	5228.000
510.000	5329.000
511.000	5592.000
512.000	5817.000
513.000	5977.000
514.000	6201.000
515.000	6324.000
516.000	6521.000
517.000	6534.000
518.000	6916.000
519.000	7178.000
520.000	7273.000
521.000	7552.000
522.000	7967.000
523.000	8276.000
524.000	8602.000
525.000	9255.000
526.000	9757.000
527.000	9949.000
528.000	10119.000
529.000	9969.000
530.000	9989.000
531.000	9627.000
532.000	9233.000
533.000	8811.000
534.000	8105.000
535.000	7538.000
536.000	6904.000
537.000	6526.000
538.000	6245.000
539.000	5653.000
540.000	5482.000
541.000	5301.000
542.000	5220.000
543.000	5185.000
544.000	5116.000
545.000	5034.000
546.000	4899.000
547.000	4912.000
548.000	5012.000
549.000	4955.000
550.000	5050.000
551.000	5099.000
552.000	5018.000
553.000	5159.000
554.000	5212.000
555.000	5262.000
556.000	5471.000
557.000	5462.000
558.000	5715.000
559.000	6001.000
560.000	6394.000
561.000	7028.000
562.000	7847.000
563.000	9323.000
564.000	10928.000
565.000	13356.000
566.000	16170.000
567.000	20117.000
568.000	24498.000
569.000	30191.000
570.000	36078.000
571.000	41769.000
572.000	48139.000
573.000	53550.000
574.000	57515.000
575.000	60195.000
576.000	61673.000
577.000	61381.000
578.000	58793.000
579.000	54771.000
580.000	50315.000
581.000	44486.000
582.000	38242.000
583.000	32374.000
584.000	27340.000
585.000	22458.000
586.000	18088.000
587.000	15059.000
588.000	12730.000
589.000	10809.000
590.000	9767.000
591.000	8849.000
592.000	8431.000
593.000	8086.000
594.000	8119.000
595.000	8287.000
596.000	8126.000
597.000	8675.000
598.000	8837.000
599.000	9320.000
600.000	9534.000
601.000	10003.000
602.000	11014.000
603.000	12115.000
604.000	13739.000
605.000	16142.000
606.000	19958.000
607.000	25904.000
608.000	35397.000
609.000	49796.000
610.000	70264.000
611.000	101084.000
612.000	143980.000
613.000	202929.000
614.000	281874.000
615.000	382107.000
616.000	507263.000
617.000	655029.000
618.000	824004.000
619.000	1007051.000
620.000	1197433.000
621.000	1377674.000
622.000	1543753.000
623.000	1680276.000
624.000	1773300.000
625.000	1811374.000
626.000	1805303.000
627.000	1740923.000
628.000	1628915.000
629.000	1480782.000
630.000	1309999.000
631.000	1120143.000
632.000	932076.000
633.000	754368.000
634.000	594704.000
635.000	455113.000
636.000	338631.000
637.000	247214.000
638.000	176738.000
639.000	124177.000
640.000	86038.000
641.000	59570.000
642.000	42222.000
643.000	30172.000
644.000	22949.000
645.000	18385.000
646.000	15530.000
647.000	13519.000
648.000	12317.000
649.000	11971.000
650.000	11425.000
651.000	11296.000
652.000	11120.000
653.000	11152.000
654.000	11247.000
655.000	11156.000
656.000	11355.000
657.000	11335.000
658.000	11575.000
659.000	11776.000
660.000	11927.000
661.000	12112.000
662.000	12327.000
663.000	12966.000
664.000	13428.000
665.000	13799.000
666.000	14473.000
667.000	14960.000
668.000	15995.000
669.000	17155.000
670.000	18599.000
671.000	20384.000
672.000	23206.000
673.000	26787.000
674.000	31257.000
675.000	37503.000
676.000	46130.000
677.000	58057.000
678.000	71855.000
679.000	88727.000
680.000	109178.000
681.000	131827.000
682.000	157730.000
683.000	185521.000
684.000	213051.000
685.000	239017.000
686.000	260894.000
687.000	279589.000
688.000	291299.000
689.000	296151.000
690.000	292924.000
691.000	283523.000
692.000	266992.000
693.000	243636.000
694.000	217722.000
695.000	189921.000
696.000	162786.000
697.000	134529.000
698.000	109163.000
699.000	87272.000
700.000	69129.000
701.000	53606.000
702.000	40888.000
703.000	31408.000
704.000	24622.000
705.000	20018.000
706.000	16100.000
707.000	13740.000
708.000	12181.000
709.000	11206.000
710.000	10675.000
711.000	10174.000
712.000	10071.000
713.000	9880.000
714.000	10103.000
715.000	10172.000
716.000	10332.000
717.000	10786.000
718.000	10815.000
719.000	11368.000
720.000	11693.000
721.000	12004.000
722.000	12442.000
723.000	13003.000
724.000	13289.000
725.000	13596.000
726.000	13878.000
727.000	14162.000
728.000	14406.000
729.000	14618.000
730.000	14651.000
731.000	14715.000
732.000	14479.000
733.000	14040.000
734.000	13750.000
735.000	13172.000
736.000	13050.000
737.000	12725.000
738.000	12156.000
739.000	12034.000
740.000	11724.000
741.000	11631.000
742.000	11550.000
743.000	11190.000
744.000	11301.000
745.000	11246.000
746.000	11072.000
747.000	11202.000
748.000	11044.000
749.000	11016.000
750.000	11216.000
751.000	11468.000
752.000	11421.000
753.000	11567.000
754.000	11563.000
755.000	11660.000
756.000	11659.000
757.000	11878.000
758.000	11835.000
759.000	12199.000
760.000	12246.000
761.000	12189.000
762.000	12476.000
763.000	12349.000
764.000	12606.000
765.000	12866.000
766.000	12985.000
767.000	13220.000
768.000	13311.000
769.000	13183.000
770.000	13603.000
771.000	14020.000
772.000	14122.000
773.000	14503.000
774.000	14709.000
775.000	15048.000
776.000	15822.000
777.000	15898.000
778.000	16364.000
779.000	16911.000
780.000	17668.000
781.000	18104.000
782.000	18678.000
783.000	19125.000
784.000	20009.000
785.000	20648.000
786.000	20929.000
787.000	21582.000
788.000	22060.000
789.000	22482.000
790.000	22719.000
791.000	22632.000
792.000	23556.000
793.000	23419.000
794.000	23660.000
795.000	23929.000
796.000	23777.000
797.000	24272.000
798.000	24211.000
799.000	24292.000
800.000	24621.000
801.000	24595.000
802.000	24665.000
803.000	24893.000
804.000	25208.000
805.000	25517.000
806.000	26435.000
807.000	27475.000
808.000	28671.000
809.000	29971.000
810.000	31856.000
811.000	33300.000
812.000	35412.000
813.000	37121.000
814.000	40015.000
815.000	41717.000
816.000	43479.000
817.000	45006.000
818.000	45746.000
819.000	46600.000
820.000	46157.000
821.000	45101.000
822.000	43990.000
823.000	42507.000
824.000	40299.000
825.000	37936.000
826.000	35232.000
827.000	32981.000
828.000	30655.000
829.000	28321.000
830.000	26607.000
831.000	25364.000
832.000	24477.000
833.000	23993.000
834.000	23656.000
835.000	23426.000
836.000	24278.000
837.000	24287.000
838.000	25052.000
839.000	25431.000
840.000	26100.000
841.000	26450.000
842.000	26788.000
843.000	26631.000
844.000	26620.000
845.000	26383.000
846.000	25799.000
847.000	24818.000
848.000	24510.000
849.000	23603.000
850.000	23078.000
851.000	22068.000
852.000	21321.000
853.000	20706.000
854.000	20617.000
855.000	20021.000
856.000	19468.000
857.000	19324.000
858.000	18862.000
859.000	18653.000
860.000	18688.000
861.000	18735.000
862.000	18587.000
863.000	18604.000
864.000	18793.000
865.000	18945.000
866.000	19055.000
867.000	19178.000
868.000	19325.000
869.000	18996.000
870.000	19061.000
871.000	19282.000
872.000	19542.000
873.000	19408.000
874.000	19729.000
875.000	19431.000
876.000	19613.000
877.000	19776.000
878.000	19732.000
879.000	19988.000
880.000	19980.000
881.000	20237.000
882.000	20244.000
883.000	20360.000
884.000	20261.000
885.000	20656.000
886.000	21000.000
887.000	20879.000
888.000	21282.000
889.000	21542.000
890.000	21931.000
891.000	21973.000
892.000	22428.000
893.000	22730.000
894.000	23195.000
895.000	23839.000
896.000	24042.000
897.000	24673.000
898.000	25139.000
899.000	25696.000
900.000	25983.000
901.000	26579.000
902.000	27213.000
903.000	27066.000
904.000	27893.000
905.000	28106.000
906.000	28139.000
907.000	28243.000
908.000	28187.000
909.000	28484.000
910.000	28793.000
911.000	28890.000
912.000	29105.000
913.000	29285.000
914.000	29013.000
915.000	29012.000
916.000	29232.000
917.000	29547.000
918.000	29337.000
919.000	29573.000
920.000	30220.000
921.000	30216.000
922.000	30338.000
923.000	30254.000
924.000	30580.000
925.000	31284.000
926.000	31377.000
927.000	31459.000
928.000	32152.000
929.000	32392.000
930.000	32890.000
931.000	33725.000
932.000	34173.000
933.000	35192.000
934.000	35889.000
935.000	37101.000
936.000	37847.000
937.000	38808.000
938.000	40005.000
939.000	40713.000
940.000	41655.000
941.000	42260.000
942.000	42303.000
943.000	42475.000
944.000	42529.000
945.000	41904.000
946.000	41710.000
947.000	41080.000
948.000	39193.000
949.000	38585.000
950.000	36962.000
951.000	35907.000
952.000	34734.000
953.000	33339.000
954.000	32715.000
955.000	31445.000
956.000	30682.000
957.000	29804.000
958.000	29331.000
959.000	28881.000
960.000	28621.000
961.000	28500.000
962.000	28458.000
963.000	28519.000
964.000	28966.000
965.000	28969.000
966.000	29190.000
967.000	29774.000
968.000	29407.000
969.000	29792.000
970.000	30255.000
971.000	30076.000
972.000	30188.000
973.000	29578.000
974.000	29718.000
975.000	29160.000
976.000	28816.000
977.000	28343.000
978.000	27989.000
979.000	27294.000
980.000	26688.000
981.000	26288.000
982.000	25796.000
983.000	25250.000
984.000	24646.000
985.000	24272.000
986.000	24359.000
987.000	24061.000
988.000	23617.000
989.000	23761.000
990.000	23388.000
991.000	23452.000
992.000	23021.000
993.000	22840.000
994.000	22825.000
995.000	22852.000
996.000	22766.000
997.000	22631.000
998.000	22538.000
999.000	22585.000
1000.000	22531.000
1001.000	22630.000
1002.000	22451.000
1003.000	22580.000
1004.000	22231.000
1005.000	22490.000
1006.000	22273.000
1007.000	22306.000
1008.000	22099.000
1009.000	22159.000
1010.000	22501.000
1011.000	22109.000
1012.000	22361.000
1013.000	22516.000
1014.000	22620.000
1015.000	22381.000
1016.000	22437.000
1017.000	22720.000
1018.000	22360.000
1019.000	22966.000
1020.000	22941.000
1021.000	22940.000
1022.000	23134.000
1023.000	23433.000
1024.000	23534.000
1025.000	23311.000
1026.000	23552.000
1027.000	23550.000
1028.000	23509.000
1029.000	23577.000
1030.000	23658.000
1031.000	23768.000
1032.000	23718.000
1033.000	23655.000
1034.000	23820.000
1035.000	23730.000
1036.000	23859.000
1037.000	23939.000
1038.000	24031.000
1039.000	23435.000
1040.000	23826.000
1041.000	24082.000
1042.000	24011.000
1043.000	24105.000
1044.000	24440.000
1045.000	24073.000
1046.000	24417.000
1047.000	24276.000
1048.000	24523.000
1049.000	24708.000
1050.000	24792.000
1051.000	24712.000
1052.000	25240.000
1053.000	25060.000
1054.000	25192.000
1055.000	25122.000
1056.000	25328.000
1057.000	25426.000
1058.000	25421.000
1059.000	25748.000
1060.000	25549.000
1061.000	25694.000
1062.000	25830.000
1063.000	25775.000
1064.000	26050.000
1065.000	25828.000
1066.000	26237.000
1067.000	26096.000
1068.000	26249.000
1069.000	26162.000
1070.000	25926.000
1071.000	26161.000
1072.000	25955.000
1073.000	25672.000
1074.000	25936.000
1075.000	25676.000
1076.000	25968.000
1077.000	25955.000
1078.000	25937.000
1079.000	25569.000
1080.000	25550.000
1081.000	26021.000
1082.000	25912.000
1083.000	25688.000
1084.000	26000.000
1085.000	26066.000
1086.000	25739.000
1087.000	26124.000
1088.000	26019.000
1089.000	26176.000
1090.000	26209.000
1091.000	26630.000
1092.000	26926.000
1093.000	26966.000
1094.000	27112.000
1095.000	27512.000
1096.000	27656.000
1097.000	27750.000
1098.000	27833.000
1099.000	27740.000
1100.000	28131.000
1101.000	27888.000
1102.000	28168.000
1103.000	28037.000
1104.000	27674.000
1105.000	27927.000
1106.000	27765.000
1107.000	27457.000
1108.000	27616.000
1109.000	26679.000
1110.000	27174.000
1111.000	26741.000
1112.000	26941.000
1113.000	26734.000
1114.000	26219.000
1115.000	26210.000
1116.000	26157.000
1117.000	26035.000
1118.000	25943.000
1119.000	25741.000
1120.000	26199.000
1121.000	26190.000
1122.000	25917.000
1123.000	25894.000
1124.000	25995.000
1125.000	26436.000
1126.000	25901.000
1127.000	26035.000
1128.000	26112.000
1129.000	26208.000
1130.000	26157.000
1131.000	26136.000
1132.000	26168.000
1133.000	26165.000
1134.000	26352.000
1135.000	26479.000
1136.000	26529.000
1137.000	26551.000
1138.000	26576.000
1139.000	26567.000
1140.000	26468.000
1141.000	26551.000
1142.000	26202.000
1143.000	26666.000
1144.000	26353.000
1145.000	26336.000
1146.000	26574.000
1147.000	26370.000
1148.000	26641.000
1149.000	27107.000
1150.000	27099.000
1151.000	27073.000
1152.000	27507.000
1153.000	27783.000
1154.000	28181.000
1155.000	28187.000
1156.000	28590.000
1157.000	28924.000
1158.000	29026.000
1159.000	29415.000
1160.000	29328.000
1161.000	29487.000
1162.000	29604.000
1163.000	29681.000
1164.000	29262.000
1165.000	29222.000
1166.000	29087.000
1167.000	28983.000
1168.000	28832.000
1169.000	28369.000
1170.000	28469.000
1171.000	28450.000
1172.000	27855.000
1173.000	27131.000
1174.000	27288.000
1175.000	27291.000
1176.000	27042.000
1177.000	26375.000
1178.000	26461.000
1179.000	26296.000
1180.000	25859.000
1181.000	26089.000
1182.000	26198.000
1183.000	26048.000
1184.000	26125.000
1185.000	25999.000
1186.000	26204.000
1187.000	26455.000
1188.000	26139.000
1189.000	25779.000
1190.000	26120.000
1191.000	26099.000
1192.000	26070.000
1193.000	25758.000
1194.000	26249.000
1195.000	26222.000
1196.000	26100.000
1197.000	26044.000
1198.000	26540.000
1199.000	26318.000
1200.000	26169.000
1201.000	26270.000
1202.000	26285.000
1203.000	26552.000
1204.000	26450.000
1205.000	26219.000
1206.000	26532.000
1207.000	26411.000
1208.000	26368.000
1209.000	26505.000
1210.000	26731.000
1211.000	26615.000
1212.000	26547.000
1213.000	26846.000
1214.000	26834.000
1215.000	26855.000
1216.000	26817.000
1217.000	26813.000
1218.000	27119.000
1219.000	26949.000
1220.000	26896.000
1221.000	26779.000
1222.000	27376.000
1223.000	27000.000
1224.000	27140.000
1225.000	27453.000
1226.000	27230.000
1227.000	27340.000
1228.000	27338.000
1229.000	27423.000
1230.000	27594.000
1231.000	27688.000
1232.000	27441.000
1233.000	27550.000
1234.000	27449.000
1235.000	27874.000
1236.000	27677.000
1237.000	27903.000
1238.000	27645.000
1239.000	27962.000
1240.000	27959.000
1241.000	28069.000
1242.000	27973.000
1243.000	28424.000
1244.000	28355.000
1245.000	28279.000
1246.000	28505.000
1247.000	28391.000
1248.000	28666.000
1249.000	28559.000
1250.000	28599.000
1251.000	28689.000
1252.000	28535.000
1253.000	28574.000
1254.000	28746.000
1255.000	28373.000
1256.000	28496.000
1257.000	28434.000
1258.000	28949.000
1259.000	28591.000
1260.000	28603.000
1261.000	28383.000
1262.000	28757.000
1263.000	28321.000
1264.000	28310.000
1265.000	28475.000
1266.000	28535.000
1267.000	28508.000
1268.000	28127.000
1269.000	28173.000
1270.000	28382.000
1271.000	28545.000
1272.000	28343.000
1273.000	28053.000
1274.000	28679.000
1275.000	28617.000
1276.000	28168.000
1277.000	28412.000
1278.000	28078.000
1279.000	28562.000
1280.000	28463.000
1281.000	28308.000
1282.000	28663.000
1283.000	28837.000
1284.000	29079.000
1285.000	28984.000
1286.000	29531.000
1287.000	29642.000
1288.000	29847.000
1289.000	30647.000
1290.000	30964.000
1291.000	31615.000
1292.000	31715.000
1293.000	32459.000
1294.000	33431.000
1295.000	33831.000
1296.000	34572.000
1297.000	35197.000
1298.000	35846.000
1299.000	36311.000
1300.000	36789.000
1301.000	37350.000
1302.000	37855.000
1303.000	38568.000
1304.000	38509.000
1305.000	38498.000
1306.000	38060.000
1307.000	37975.000
1308.000	37779.000
1309.000	37958.000
1310.000	37208.000
1311.000	35941.000
1312.000	35608.000
1313.000	34810.000
1314.000	34091.000
1315.000	33516.000
1316.000	32998.000
1317.000	32490.000
1318.000	31686.000
1319.000	30932.000
1320.000	30697.000
1321.000	30687.000
1322.000	30121.000
1323.000	30079.000
1324.000	29555.000
1325.000	29300.000
1326.000	29522.000
1327.000	29181.000
1328.000	29065.000
1329.000	29152.000
1330.000	28920.000
1331.000	29040.000
1332.000	28926.000
1333.000	28790.000
1334.000	28945.000
1335.000	28740.000
1336.000	28807.000
1337.000	28891.000
1338.000	28960.000
1339.000	28792.000
1340.000	29213.000
1341.000	28828.000
1342.000	29031.000
1343.000	29078.000
1344.000	28739.000
1345.000	28967.000
1346.000	28747.000
1347.000	29168.000
1348.000	28927.000
1349.000	29464.000
1350.000	29199.000
1351.000	29589.000
1352.000	29606.000
1353.000	29604.000
1354.000	29851.000
1355.000	30212.000
1356.000	30642.000
1357.000	31438.000
1358.000	31427.000
1359.000	33247.000
1360.000	33861.000
1361.000	35064.000
1362.000	36260.000
1363.000	38524.000
1364.000	40535.000
1365.000	43047.000
1366.000	45617.000
1367.000	48851.000
1368.000	51702.000
1369.000	55463.000
1370.000	59189.000
1371.000	62417.000
1372.000	66167.000
1373.000	69973.000
1374.000	73176.000
1375.000	75980.000
1376.000	78778.000
1377.000	80002.000
1378.000	82115.000
1379.000	83068.000
1380.000	82863.000
1381.000	82559.000
1382.000	81567.000
1383.000	79787.000
1384.000	76723.000
1385.000	73809.000
1386.000	70447.000
1387.000	66897.000
1388.000	63126.000
1389.000	59626.000
1390.000	55548.000
1391.000	51769.000
1392.000	48602.000
1393.000	45277.000
1394.000	42904.000
1395.000	40000.000
1396.000	37784.000
1397.000	35857.000
1398.000	34474.000
1399.000	33174.000
1400.000	31995.000
1401.000	31012.000
1402.000	30543.000
1403.000	30145.000
1404.000	29527.000
1405.000	29378.000
1406.000	29127.000
1407.000	28805.000
1408.000	28787.000
1409.000	28783.000
1410.000	28673.000
1411.000	28668.000
1412.000	28477.000
1413.000	28521.000
1414.000	28492.000
1415.000	28700.000
1416.000	28051.000
1417.000	28741.000
1418.000	28426.000
1419.000	28252.000
1420.000	28482.000
1421.000	28502.000
1422.000	28449.000
1423.000	28435.000
1424.000	28538.000
1425.000	28719.000
1426.000	28483.000
1427.000	28659.000
1428.000	28462.000
1429.000	28396.000
1430.000	28470.000
1431.000	28812.000
1432.000	28883.000
1433.000	28890.000
1434.000	28688.000
1435.000	28489.000
1436.000	29120.000
1437.000	28954.000
1438.000	29168.000
1439.000	29495.000
1440.000	29298.000
1441.000	29559.000
1442.000	29844.000
1443.000	29918.000
1444.000	30410.000
1445.000	30560.000
1446.000	30782.000
1447.000	31358.000
1448.000	31571.000
1449.000	31434.000
1450.000	32068.000
1451.000	32411.000
1452.000	32683.000
1453.000	33045.000
1454.000	33268.000
1455.000	33017.000
1456.000	33834.000
1457.000	33704.000
1458.000	33670.000
1459.000	33560.000
1460.000	33760.000
1461.000	33542.000
1462.000	33188.000
1463.000	32810.000
1464.000	32770.000
1465.000	32465.000
1466.000	32149.000
1467.000	31785.000
1468.000	31504.000
1469.000	31218.000
1470.000	31240.000
1471.000	30793.000
1472.000	30841.000
1473.000	30241.000
1474.000	30514.000
1475.000	30382.000
1476.000	30262.000
1477.000	30252.000
1478.000	29833.000
1479.000	29694.000
1480.000	29759.000
1481.000	29882.000
1482.000	29812.000
1483.000	30201.000
1484.000	29935.000
1485.000	30184.000
1486.000	29857.000
1487.000	29921.000
1488.000	30224.000
1489.000	29939.000
1490.000	30163.000
1491.000	30083.000
1492.000	30446.000
1493.000	29992.000
1494.000	30005.000
1495.000	30130.000
1496.000	30648.000
1497.000	30288.000
1498.000	30147.000
1499.000	30242.000
1500.000	30722.000
1501.000	30553.000
1502.000	30316.000
1503.000	30694.000
1504.000	31022.000
1505.000	30596.000
1506.000	31212.000
1507.000	31180.000
1508.000	31445.000
1509.000	31502.000
1510.000	31977.000
1511.000	32242.000
1512.000	32497.000
1513.000	33032.000
1514.000	33671.000
1515.000	34167.000
1516.000	34930.000
1517.000	36046.000
1518.000	37073.000
1519.000	37978.000
1520.000	39269.000
1521.000	40937.000
1522.000	42869.000
1523.000	44655.000
1524.000	46504.000
1525.000	48599.000
1526.000	50379.000
1527.000	52570.000
1528.000	55004.000
1529.000	56919.000
1530.000	58911.000
1531.000	61055.000
1532.000	63028.000
1533.000	64826.000
1534.000	66061.000
1535.000	67278.000
1536.000	68414.000
1537.000	69599.000
1538.000	69103.000
1539.000	69604.000
1540.000	69246.000
1541.000	68500.000
1542.000	67124.000
1543.000	66108.000
1544.000	64161.000
1545.000	62664.000
1546.000	61143.000
1547.000	58983.000
1548.000	57952.000
1549.000	55650.000
1550.000	53336.000
1551.000	52188.000
1552.000	50512.000
1553.000	49424.000
1554.000	47529.000
1555.000	46661.000
1556.000	46153.000
1557.000	45566.000
1558.000	44950.000
1559.000	44507.000
1560.000	44738.000
1561.000	45064.000
1562.000	45119.000
1563.000	45560.000
1564.000	46367.000
1565.000	46686.000
1566.000	47039.000
1567.000	48229.000
1568.000	49175.000
1569.000	49931.000
1570.000	51029.000
1571.000	52265.000
1572.000	53141.000
1573.000	54458.000
1574.000	56119.000
1575.000	57124.000
1576.000	58459.000
1577.000	59798.000
1578.000	62092.000
1579.000	62871.000
1580.000	64427.000
1581.000	66361.000
1582.000	68043.000
1583.000	69689.000
1584.000	71982.000
1585.000	74510.000
1586.000	75563.000
1587.000	78368.000
1588.000	80198.000
1589.000	82155.000
1590.000	84102.000
1591.000	86172.000
1592.000	87570.000
1593.000	90062.000
1594.000	91689.000
1595.000	93885.000
1596.000	95705.000
1597.000	97153.000
1598.000	99208.000
1599.000	100931.000
1600.000	102056.000
1601.000	103523.000
1602.000	103975.000
1603.000	105976.000
1604.000	106369.000
1605.000	107274.000
1606.000	108553.000
1607.000	108451.000
1608.000	108962.000
1609.000	108928.000
1610.000	108819.000
1611.000	109355.000
1612.000	108966.000
1613.000	108177.000
1614.000	108173.000
1615.000	106697.000
1616.000	105745.000
1617.000	104609.000
1618.000	102909.000
1619.000	101526.000
1620.000	99979.000
1621.000	97841.000
1622.000	96030.000
1623.000	94229.000
1624.000	92042.000
1625.000	90134.000
1626.000	88004.000
1627.000	85592.000
1628.000	82792.000
1629.000	80671.000
1630.000	78334.000
1631.000	76074.000
1632.000	73699.000
1633.000	71248.000
1634.000	69620.000
1635.000	67077.000
1636.000	64407.000
1637.000	62943.000
1638.000	61379.000
1639.000	59056.000
1640.000	57442.000
1641.000	55747.000
1642.000	54142.000
1643.000	52630.000
1644.000	51359.000
1645.000	49869.000
1646.000	48432.000
1647.000	47359.000
1648.000	46072.000
1649.000	44882.000
1650.000	44255.000
1651.000	42750.000
1652.000	41363.000
1653.000	40957.000
1654.000	39346.000
1655.000	39160.000
1656.000	38321.000
1657.000	37954.000
1658.000	36616.000
1659.000	36184.000
1660.000	35591.000
1661.000	35202.000
1662.000	34759.000
1663.000	34324.000
1664.000	33562.000
1665.000	33418.000
1666.000	32901.000
1667.000	32666.000
1668.000	32256.000
1669.000	32326.000
1670.000	31829.000
1671.000	31717.000
1672.000	32112.000
1673.000	31884.000
1674.000	32133.000
1675.000	32578.000
1676.000	33154.000
1677.000	33558.000
1678.000	34606.000
1679.000	35450.000
1680.000	36611.000
1681.000	38262.000
1682.000	39616.000
1683.000	41448.000
1684.000	43566.000
1685.000	45941.000
1686.000	48615.000
1687.000	51211.000
1688.000	54781.000
1689.000	57571.000
1690.000	60797.000
1691.000	63850.000
1692.000	67201.000
1693.000	70561.000
1694.000	73249.000
1695.000	76160.000
1696.000	79327.000
1697.000	80643.000
1698.000	83310.000
1699.000	85269.000
1700.000	86011.000
1701.000	86737.000
1702.000	86237.000
1703.000	86222.000
1704.000	84815.000
1705.000	83148.000
1706.000	81329.000
1707.000	79100.000
1708.000	76562.000
1709.000	73458.000
1710.000	69722.000
1711.000	66763.000
1712.000	63313.000
1713.000	59795.000
1714.000	56628.000
1715.000	53002.000
1716.000	49818.000
1717.000	46899.000
1718.000	44248.000
1719.000	41592.000
1720.000	39658.000
1721.000	37680.000
1722.000	35907.000
1723.000	34527.000
1724.000	33552.000
1725.000	31980.000
1726.000	31216.000
1727.000	30083.000
1728.000	29550.000
1729.000	28854.000
1730.000	28161.000
1731.000	27271.000
1732.000	27238.000
1733.000	27070.000
1734.000	26222.000
1735.000	25870.000
1736.000	25798.000
1737.000	25394.000
1738.000	25184.000
1739.000	25412.000
1740.000	25183.000
1741.000	25220.000
1742.000	25017.000
1743.000	25015.000
1744.000	25069.000
1745.000	25104.000
1746.000	25354.000
1747.000	25404.000
1748.000	25250.000
1749.000	25328.000
1750.000	25225.000
1751.000	25906.000
1752.000	26021.000
1753.000	25876.000
1754.000	25793.000
1755.000	26128.000
1756.000	26140.000
1757.000	26492.000
1758.000	26805.000
1759.000	26713.000
1760.000	26635.000
1761.000	27188.000
1762.000	26997.000
1763.000	27248.000
1764.000	27709.000
1765.000	27806.000
1766.000	28096.000
1767.000	28248.000
1768.000	28565.000
1769.000	28456.000
1770.000	28877.000
1771.000	29394.000
1772.000	29197.000
1773.000	29723.000
1774.000	30078.000
1775.000	30271.000
1776.000	30261.000
1777.000	30895.000
1778.000	31208.000
1779.000	31433.000
1780.000	32162.000
1781.000	32103.000
1782.000	31870.000
1783.000	32059.000
1784.000	32301.000
1785.000	32472.000
1786.000	32826.000
1787.000	33108.000
1788.000	32903.000
1789.000	33231.000
1790.000	33244.000
1791.000	33450.000
1792.000	33098.000
1793.000	33373.000
1794.000	32987.000
1795.000	33503.000
1796.000	33090.000
1797.000	33432.000
1798.000	33477.000
1799.000	32840.000
1800.000	32965.000
1801.000	33156.000
1802.000	32343.000
1803.000	32377.000
1804.000	32077.000
1805.000	32392.000
1806.000	31780.000
1807.000	31280.000
1808.000	31660.000
1809.000	31146.000
1810.000	30944.000
1811.000	30731.000
1812.000	30532.000
1813.000	30017.000
1814.000	29850.000
1815.000	28930.000
1816.000	28851.000
1817.000	28363.000
1818.000	27837.000
1819.000	27582.000
1820.000	26944.000
1821.000	26762.000
1822.000	26198.000
1823.000	25624.000
1824.000	25349.000
1825.000	24814.000
1826.000	24279.000
1827.000	23741.000
1828.000	23570.000
1829.000	23255.000
1830.000	22617.000
1831.000	22324.000
1832.000	22121.000
1833.000	21542.000
1834.000	21104.000
1835.000	21029.000
1836.000	20606.000
1837.000	19874.000
1838.000	20001.000
1839.000	19439.000
1840.000	19280.000
1841.000	18966.000
1842.000	19039.000
1843.000	18630.000
1844.000	18347.000
1845.000	18190.000
1846.000	17811.000
1847.000	17688.000
1848.000	17416.000
1849.000	17055.000
1850.000	16906.000
1851.000	16765.000
1852.000	16351.000
1853.000	16387.000
1854.000	15988.000
1855.000	15897.000
1856.000	15532.000
1857.000	15605.000
1858.000	15232.000
1859.000	15044.000
1860.000	14964.000
1861.000	14720.000
1862.000	14564.000
1863.000	14389.000
1864.000	14109.000
1865.000	13979.000
1866.000	14043.000
1867.000	14184.000
1868.000	13878.000
1869.000	13633.000
1870.000	13461.000
1871.000	13435.000
1872.000	13311.000
1873.000	13385.000
1874.000	13424.000
1875.000	13189.000
1876.000	13066.000
1877.000	12830.000
1878.000	12855.000
1879.000	12794.000
1880.000	12677.000
1881.000	12810.000
1882.000	12570.000
1883.000	12680.000
1884.000	12690.000
1885.000	12726.000
1886.000	12717.000
1887.000	12646.000
1888.000	12676.000
1889.000	12938.000
1890.000	12891.000
1891.000	13170.000
1892.000	13006.000
1893.000	13353.000
1894.000	13599.000
1895.000	13647.000
1896.000	14172.000
1897.000	14392.000
1898.000	15020.000
1899.000	15548.000
1900.000	16012.000
1901.000	16621.000
1902.000	16973.000
1903.000	17525.000
1904.000	17734.000
1905.000	18217.000
1906.000	18904.000
1907.000	19077.000
1908.000	19670.000
1909.000	19731.000
1910.000	20033.000
1911.000	19896.000
1912.000	20159.000
1913.000	19906.000
1914.000	19400.000
1915.000	19305.000
1916.000	18909.000
1917.000	18593.000
1918.000	17987.000
1919.000	17251.000
1920.000	17009.000
1921.000	15980.000
1922.000	15573.000
1923.000	14884.000
1924.000	14812.000
1925.000	14071.000
1926.000	13584.000
1927.000	13124.000
1928.000	12768.000
1929.000	12429.000
1930.000	12132.000
1931.000	12026.000
1932.000	11841.000
1933.000	11630.000
1934.000	11670.000
1935.000	11576.000
1936.000	11474.000
1937.000	11341.000
1938.000	11462.000
1939.000	11445.000
1940.000	11302.000
1941.000	11279.000
1942.000	11371.000
1943.000	11371.000
1944.000	11340.000
1945.000	11334.000
1946.000	11187.000
1947.000	11094.000
1948.000	10973.000
1949.000	10984.000
1950.000	10817.000
1951.000	10917.000
1952.000	10497.000
1953.000	10104.000
1954.000	10178.000
1955.000	10037.000
1956.000	10023.000
1957.000	10023.000
1958.000	9878.000
1959.000	9589.000
1960.000	9609.000
1961.000	9377.000
1962.000	9320.000
1963.000	9244.000
1964.000	9138.000
1965.000	8983.000
1966.000	9097.000
1967.000	9030.000
1968.000	8973.000
1969.000	8961.000
1970.000	8787.000
1971.000	8793.000
1972.000	8884.000
1973.000	8739.000
1974.000	8624.000
1975.000	8801.000
1976.000	8591.000
1977.000	8884.000
1978.000	8581.000
1979.000	8711.000
1980.000	8598.000
1981.000	8630.000
1982.000	8495.000
1983.000	8724.000
1984.000	8581.000
1985.000	8705.000
1986.000	8534.000
1987.000	8386.000
1988.000	8527.000
1989.000	8690.000
1990.000	8592.000
1991.000	8570.000
1992.000	8625.000
1993.000	8594.000
1994.000	8581.000
1995.000	8670.000
1996.000	8474.000
1997.000	8612.000
1998.000	8541.000
1999.000	8370.000
2000.000	8556.000
2001.000	8428.000
2002.000	8405.000
2003.000	8574.000
2004.000	8557.000
2005.000	8359.000
2006.000	8499.000
2007.000	8620.000
2008.000	8252.000
2009.000	8418.000
2010.000	8474.000
2011.000	8239.000
2012.000	8437.000
2013.000	8422.000
2014.000	8339.000
2015.000	8204.000
2016.000	8240.000
2017.000	8302.000
2018.000	8140.000
2019.000	8180.000
2020.000	8264.000
2021.000	8223.000
2022.000	8288.000
2023.000	8241.000
2024.000	8267.000
2025.000	8268.000
2026.000	8232.000
2027.000	8221.000
2028.000	7993.000
2029.000	8189.000
2030.000	7956.000
2031.000	8150.000
2032.000	7963.000
2033.000	8108.000
2034.000	8074.000
2035.000	7909.000
2036.000	8093.000
2037.000	8063.000
2038.000	7922.000
2039.000	7892.000
2040.000	8110.000
2041.000	7797.000
2042.000	8075.000
2043.000	7910.000
2044.000	7950.000
2045.000	7944.000
2046.000	7968.000
2047.000	8081.000
2048.000	0.000
